"success","timeout","failed_images","failed_audio","failed_video","trial_type","trial_index","plugin_version","time_elapsed","mturk_participant_id","mturk_assignment_id","mturk_project_id","trial_id","rt","stimulus","response","view_history","0","1","2","3","4","5","6","7","8","9","10","11","12","13","14","question_order","15","init_locations","moves","final_locations","feedback","age","ethnicity","gender","race"
"true","false","[]","[]","[]","preload","0","2.0.0","487","2A1981939AC645E9A366B1632F22F230","1f2beffb-56c9-4435-b0ce-b2ff35403d3a","c9908d3c-c6c0-4ff0-8197-ad6b853728e6","","","","","","","","","","","","","","","","","","","","","","","","","","","","","",""
"","","","","","html-button-response","1","2.0.0","3827","2A1981939AC645E9A366B1632F22F230","1f2beffb-56c9-4435-b0ce-b2ff35403d3a","c9908d3c-c6c0-4ff0-8197-ad6b853728e6","consent","3335","<p><b>Consent Form</b></p> <div style=""text-align:left;background-color:lightblue; padding:2vw; max-width:80vw;""><p><b>Purpose:</b> The purpose of this study is to understand how people think about the physical and social world.</p><p><b>Procedures:</b> In this study, you will watch videos, read sentences, or see pictures, and answer simple questions about them. This study should take approximately 30 minutes</p><p><b>Participation:</b> Participation in this study is voluntary. If you decide to join now, you can change your mind later. </p><p><b>Payment:</b> You will be paid $15.00/hour for participating in this study. Given the estimated duration of 30 minutes, your payment will amount to $7.50.</p><p><b>Risks and benefits:</b> There are no risks associated with participating in this study. There are no direct benefits associated with participating in this study. </p><p><b>Use of data by study researchers:</b> The research team led by Shari Liu at JHU will have access to your answers. </p><p><b>Publication of results:</b> The results of the research may be presented at scientific meetings or published in scientific journals. Your individual responses may be published. We will never publish your name, the date that you participated, and any other information that could be used to identify you. </p><p><b>Researcher contact information:</b> This study is run by Dr. Shari Liu at JHU. If you have any questions or concerns about this study, or in the very unlikely event of a research-related injury, please contact sliu199@jhu.edu. </p><p><b>Research rights information:</b> If you have questions about your rights as a research participant or feel that you have not been treated fairly, please call the Homewood Institutional Review Board at Johns Hopkins University at (410) 516-6580. If you have any questions or issues completing the survey, please email Shari Liu at sliu199@jhu.edu. </p> </div><p> Do you consent to participate? </p>","0","","","","","","","","","","","","","","","","","","","","","","","","","",""
"","","","","","instructions","2","2.0.0","9965","2A1981939AC645E9A366B1632F22F230","1f2beffb-56c9-4435-b0ce-b2ff35403d3a","c9908d3c-c6c0-4ff0-8197-ad6b853728e6","","6136","","","[{""page_index"":0,""viewing_time"":6135}]","","","","","","","","","","","","","","","","","","","","","","","","",""
"","","","","","instructions","3","2.0.0","19273","2A1981939AC645E9A366B1632F22F230","1f2beffb-56c9-4435-b0ce-b2ff35403d3a","c9908d3c-c6c0-4ff0-8197-ad6b853728e6","","9305","","","[{""page_index"":0,""viewing_time"":9305}]","","","","","","","","","","","","","","","","","","","","","","","","",""
"","","","","","survey-slider","4","null","59882","2A1981939AC645E9A366B1632F22F230","1f2beffb-56c9-4435-b0ce-b2ff35403d3a","c9908d3c-c6c0-4ff0-8197-ad6b853728e6","","40581.40000003576","","{""Q0"":""61"",""Q1"":""69"",""Q2"":""75"",""Q3"":""57"",""Q4"":""67"",""Q5"":""77"",""Q6"":""58"",""Q7"":""74"",""Q8"":""71"",""Q9"":""62"",""Q10"":""87"",""Q11"":""75"",""Q12"":""74"",""Q13"":""75"",""Q14"":""75""}","","{""itemA"":""feel scared"",""itemB"":""experience pain"",""categoryA"":""physiological"",""categoryB"":""physiological"",""attention_check"":false,""correct_response"":null}","{""itemA"":""feel scared"",""itemB"":""feel scared"",""categoryA"":""physiological"",""categoryB"":""physiological"",""attention_check"":false,""correct_response"":null}","{""itemA"":""feel scared"",""itemB"":""choose what to do"",""categoryA"":""physiological"",""categoryB"":""cognitive"",""attention_check"":false,""correct_response"":null}","{""itemA"":""feel scared"",""itemB"":""think about something"",""categoryA"":""physiological"",""categoryB"":""cognitive"",""attention_check"":false,""correct_response"":null}","{""itemA"":""feel scared"",""itemB"":""get sick"",""categoryA"":""physiological"",""categoryB"":""physiological"",""attention_check"":false,""correct_response"":null}","{""itemA"":""feel scared"",""itemB"":""get tired"",""categoryA"":""physiological"",""categoryB"":""physiological"",""attention_check"":false,""correct_response"":null}","{""itemA"":""feel scared"",""itemB"":""see something"",""categoryA"":""physiological"",""categoryB"":""cognitive"",""attention_check"":false,""correct_response"":null}","{""itemA"":""feel scared"",""itemB"":""reach for something"",""categoryA"":""physiological"",""categoryB"":""physical"",""attention_check"":false,""correct_response"":null}","{""itemA"":""feel scared"",""itemB"":""sit down"",""categoryA"":""physiological"",""categoryB"":""physical"",""attention_check"":false,""correct_response"":null}","{""itemA"":""feel scared"",""itemB"":""jump up and down"",""categoryA"":""physiological"",""categoryB"":""physical"",""attention_check"":false,""correct_response"":null}","{""itemA"":""feel scared"",""itemB"":""take a walk"",""categoryA"":""physiological"",""categoryB"":""physical"",""attention_check"":false,""correct_response"":null}","{""itemA"":""feel scared"",""itemB"":""become hungry"",""categoryA"":""physiological"",""categoryB"":""physiological"",""attention_check"":false,""correct_response"":null}","{""itemA"":""feel scared"",""itemB"":""hear something"",""categoryA"":""physiological"",""categoryB"":""cognitive"",""attention_check"":false,""correct_response"":null}","{""itemA"":""feel scared"",""itemB"":""kick something"",""categoryA"":""physiological"",""categoryB"":""physical"",""attention_check"":false,""correct_response"":null}","{""itemA"":""feel scared"",""itemB"":""remember something"",""categoryA"":""physiological"",""categoryB"":""cognitive"",""attention_check"":false,""correct_response"":null}","[0,1,2,3,4,5,6,7,8,9,10,11,12,13,14]","","","","","","","","",""
"","","","","","survey-slider","5","null","83052","2A1981939AC645E9A366B1632F22F230","1f2beffb-56c9-4435-b0ce-b2ff35403d3a","c9908d3c-c6c0-4ff0-8197-ad6b853728e6","","23162.400000035763","","{""Q0"":""75"",""Q1"":""74"",""Q2"":""81"",""Q3"":""84"",""Q4"":""91"",""Q5"":""88"",""Q6"":""71"",""Q7"":""74"",""Q8"":""74"",""Q9"":""77"",""Q10"":""73"",""Q11"":""81"",""Q12"":""63"",""Q13"":""66"",""Q14"":""62""}","","{""itemA"":""see something"",""itemB"":""get tired"",""categoryA"":""cognitive"",""categoryB"":""physiological"",""attention_check"":false,""correct_response"":null}","{""itemA"":""see something"",""itemB"":""experience pain"",""categoryA"":""cognitive"",""categoryB"":""physiological"",""attention_check"":false,""correct_response"":null}","{""itemA"":""see something"",""itemB"":""reach for something"",""categoryA"":""cognitive"",""categoryB"":""physical"",""attention_check"":false,""correct_response"":null}","{""itemA"":""see something"",""itemB"":""get sick"",""categoryA"":""cognitive"",""categoryB"":""physiological"",""attention_check"":false,""correct_response"":null}","{""itemA"":""see something"",""itemB"":""sit down"",""categoryA"":""cognitive"",""categoryB"":""physical"",""attention_check"":false,""correct_response"":null}","{""itemA"":""see something"",""itemB"":""kick something"",""categoryA"":""cognitive"",""categoryB"":""physical"",""attention_check"":false,""correct_response"":null}","{""itemA"":""see something"",""itemB"":""remember something"",""categoryA"":""cognitive"",""categoryB"":""cognitive"",""attention_check"":false,""correct_response"":null}","{""itemA"":""see something"",""itemB"":""hear something"",""categoryA"":""cognitive"",""categoryB"":""cognitive"",""attention_check"":false,""correct_response"":null}","{""itemA"":""see something"",""itemB"":""think about something"",""categoryA"":""cognitive"",""categoryB"":""cognitive"",""attention_check"":false,""correct_response"":null}","{""itemA"":""see something"",""itemB"":""see something"",""categoryA"":""cognitive"",""categoryB"":""cognitive"",""attention_check"":false,""correct_response"":null}","{""itemA"":""see something"",""itemB"":""become hungry"",""categoryA"":""cognitive"",""categoryB"":""physiological"",""attention_check"":false,""correct_response"":null}","{""itemA"":""see something"",""itemB"":""feel scared"",""categoryA"":""cognitive"",""categoryB"":""physiological"",""attention_check"":false,""correct_response"":null}","{""itemA"":""see something"",""itemB"":""jump up and down"",""categoryA"":""cognitive"",""categoryB"":""physical"",""attention_check"":false,""correct_response"":null}","{""itemA"":""see something"",""itemB"":""take a walk"",""categoryA"":""cognitive"",""categoryB"":""physical"",""attention_check"":false,""correct_response"":null}","{""itemA"":""see something"",""itemB"":""choose what to do"",""categoryA"":""cognitive"",""categoryB"":""cognitive"",""attention_check"":false,""correct_response"":null}","[0,1,2,3,4,5,6,7,8,9,10,11,12,13,14]","","","","","","","","",""
"","","","","","survey-slider","6","null","109177","2A1981939AC645E9A366B1632F22F230","1f2beffb-56c9-4435-b0ce-b2ff35403d3a","c9908d3c-c6c0-4ff0-8197-ad6b853728e6","","26117.399999976158","","{""Q0"":""79"",""Q1"":""92"",""Q2"":""86"",""Q3"":""84"",""Q4"":""80"",""Q5"":""80"",""Q6"":""87"",""Q7"":""88"",""Q8"":""80"",""Q9"":""84"",""Q10"":""93"",""Q11"":""70"",""Q12"":""56"",""Q13"":""92"",""Q14"":""86""}","","{""itemA"":""reach for something"",""itemB"":""get tired"",""categoryA"":""physical"",""categoryB"":""physiological"",""attention_check"":false,""correct_response"":null}","{""itemA"":""reach for something"",""itemB"":""sit down"",""categoryA"":""physical"",""categoryB"":""physical"",""attention_check"":false,""correct_response"":null}","{""itemA"":""reach for something"",""itemB"":""feel scared"",""categoryA"":""physical"",""categoryB"":""physiological"",""attention_check"":false,""correct_response"":null}","{""itemA"":""reach for something"",""itemB"":""think about something"",""categoryA"":""physical"",""categoryB"":""cognitive"",""attention_check"":false,""correct_response"":null}","{""itemA"":""reach for something"",""itemB"":""take a walk"",""categoryA"":""physical"",""categoryB"":""physical"",""attention_check"":false,""correct_response"":null}","{""itemA"":""reach for something"",""itemB"":""jump up and down"",""categoryA"":""physical"",""categoryB"":""physical"",""attention_check"":false,""correct_response"":null}","{""itemA"":""reach for something"",""itemB"":""hear something"",""categoryA"":""physical"",""categoryB"":""cognitive"",""attention_check"":false,""correct_response"":null}","{""itemA"":""reach for something"",""itemB"":""remember something"",""categoryA"":""physical"",""categoryB"":""cognitive"",""attention_check"":false,""correct_response"":null}","{""itemA"":""reach for something"",""itemB"":""experience pain"",""categoryA"":""physical"",""categoryB"":""physiological"",""attention_check"":false,""correct_response"":null}","{""itemA"":""reach for something"",""itemB"":""reach for something"",""categoryA"":""physical"",""categoryB"":""physical"",""attention_check"":false,""correct_response"":null}","{""itemA"":""reach for something"",""itemB"":""choose what to do"",""categoryA"":""physical"",""categoryB"":""cognitive"",""attention_check"":false,""correct_response"":null}","{""itemA"":""reach for something"",""itemB"":""kick something"",""categoryA"":""physical"",""categoryB"":""physical"",""attention_check"":false,""correct_response"":null}","{""itemA"":""reach for something"",""itemB"":""see something"",""categoryA"":""physical"",""categoryB"":""cognitive"",""attention_check"":false,""correct_response"":null}","{""itemA"":""reach for something"",""itemB"":""get sick"",""categoryA"":""physical"",""categoryB"":""physiological"",""attention_check"":false,""correct_response"":null}","{""itemA"":""reach for something"",""itemB"":""become hungry"",""categoryA"":""physical"",""categoryB"":""physiological"",""attention_check"":false,""correct_response"":null}","[0,1,2,3,4,5,6,7,8,9,10,11,12,13,14]","","","","","","","","",""
"","","","","","survey-slider","7","null","127301","2A1981939AC645E9A366B1632F22F230","1f2beffb-56c9-4435-b0ce-b2ff35403d3a","c9908d3c-c6c0-4ff0-8197-ad6b853728e6","","18106.80000001192","","{""Q0"":""81"",""Q1"":""92"",""Q2"":""90"",""Q3"":""59"",""Q4"":""78"",""Q5"":""69"",""Q6"":""86"",""Q7"":""73"",""Q8"":""74"",""Q9"":""75"",""Q10"":""68"",""Q11"":""74"",""Q12"":""86"",""Q13"":""77"",""Q14"":""81"",""Q15"":""71""}","","{""itemA"":""remember something"",""itemB"":""get sick"",""categoryA"":""cognitive"",""categoryB"":""physiological"",""attention_check"":false,""correct_response"":null}","{""itemA"":""remember something"",""itemB"":""sit down"",""categoryA"":""cognitive"",""categoryB"":""physical"",""attention_check"":false,""correct_response"":null}","{""itemA"":""remember something"",""itemB"":""jump up and down"",""categoryA"":""cognitive"",""categoryB"":""physical"",""attention_check"":false,""correct_response"":null}","{""itemA"":""remember something"",""itemB"":""kick something"",""categoryA"":""cognitive"",""categoryB"":""physical"",""attention_check"":false,""correct_response"":null}","{""itemA"":""remember something"",""itemB"":""hear something"",""categoryA"":""cognitive"",""categoryB"":""cognitive"",""attention_check"":false,""correct_response"":null}","{""itemA"":""remember something"",""itemB"":""get tired"",""categoryA"":""cognitive"",""categoryB"":""physiological"",""attention_check"":false,""correct_response"":null}","{""itemA"":""remember something"",""itemB"":""reach for something"",""categoryA"":""cognitive"",""categoryB"":""physical"",""attention_check"":false,""correct_response"":null}","{""itemA"":""remember something"",""itemB"":""take a walk"",""categoryA"":""cognitive"",""categoryB"":""physical"",""attention_check"":false,""correct_response"":null}","{""itemA"":""remember something"",""itemB"":""remember something"",""categoryA"":""cognitive"",""categoryB"":""cognitive"",""attention_check"":false,""correct_response"":null}","{""itemA"":""remember something"",""itemB"":""feel scared"",""categoryA"":""cognitive"",""categoryB"":""physiological"",""attention_check"":false,""correct_response"":null}","{""itemA"":""remember something"",""itemB"":""choose what to do"",""categoryA"":""cognitive"",""categoryB"":""cognitive"",""attention_check"":false,""correct_response"":null}","{""itemA"":""remember something"",""itemB"":""become hungry"",""categoryA"":""cognitive"",""categoryB"":""physiological"",""attention_check"":false,""correct_response"":null}","{""itemA"":""remember something"",""itemB"":""experience pain"",""categoryA"":""cognitive"",""categoryB"":""physiological"",""attention_check"":false,""correct_response"":null}","{""itemA"":null,""itemB"":null,""categoryA"":null,""categoryB"":null,""attention_check"":true,""correct_response"":null}","{""itemA"":""remember something"",""itemB"":""think about something"",""categoryA"":""cognitive"",""categoryB"":""cognitive"",""attention_check"":false,""correct_response"":null}","[0,1,2,3,4,5,6,7,8,9,10,11,12,13,14,15]","{""itemA"":""remember something"",""itemB"":""see something"",""categoryA"":""cognitive"",""categoryB"":""cognitive"",""attention_check"":false,""correct_response"":null}","","","","","","","",""
"","","","","","survey-slider","8","null","146284","2A1981939AC645E9A366B1632F22F230","1f2beffb-56c9-4435-b0ce-b2ff35403d3a","c9908d3c-c6c0-4ff0-8197-ad6b853728e6","","18962.80000001192","","{""Q0"":""71"",""Q1"":""82"",""Q2"":""72"",""Q3"":""65"",""Q4"":""87"",""Q5"":""86"",""Q6"":""72"",""Q7"":""76"",""Q8"":""79"",""Q9"":""65"",""Q10"":""62"",""Q11"":""69"",""Q12"":""83"",""Q13"":""84"",""Q14"":""50""}","","{""itemA"":""get tired"",""itemB"":""feel scared"",""categoryA"":""physiological"",""categoryB"":""physiological"",""attention_check"":false,""correct_response"":null}","{""itemA"":""get tired"",""itemB"":""sit down"",""categoryA"":""physiological"",""categoryB"":""physical"",""attention_check"":false,""correct_response"":null}","{""itemA"":""get tired"",""itemB"":""choose what to do"",""categoryA"":""physiological"",""categoryB"":""cognitive"",""attention_check"":false,""correct_response"":null}","{""itemA"":""get tired"",""itemB"":""experience pain"",""categoryA"":""physiological"",""categoryB"":""physiological"",""attention_check"":false,""correct_response"":null}","{""itemA"":""get tired"",""itemB"":""reach for something"",""categoryA"":""physiological"",""categoryB"":""physical"",""attention_check"":false,""correct_response"":null}","{""itemA"":""get tired"",""itemB"":""hear something"",""categoryA"":""physiological"",""categoryB"":""cognitive"",""attention_check"":false,""correct_response"":null}","{""itemA"":""get tired"",""itemB"":""see something"",""categoryA"":""physiological"",""categoryB"":""cognitive"",""attention_check"":false,""correct_response"":null}","{""itemA"":""get tired"",""itemB"":""take a walk"",""categoryA"":""physiological"",""categoryB"":""physical"",""attention_check"":false,""correct_response"":null}","{""itemA"":""get tired"",""itemB"":""kick something"",""categoryA"":""physiological"",""categoryB"":""physical"",""attention_check"":false,""correct_response"":null}","{""itemA"":""get tired"",""itemB"":""become hungry"",""categoryA"":""physiological"",""categoryB"":""physiological"",""attention_check"":false,""correct_response"":null}","{""itemA"":""get tired"",""itemB"":""get sick"",""categoryA"":""physiological"",""categoryB"":""physiological"",""attention_check"":false,""correct_response"":null}","{""itemA"":""get tired"",""itemB"":""remember something"",""categoryA"":""physiological"",""categoryB"":""cognitive"",""attention_check"":false,""correct_response"":null}","{""itemA"":""get tired"",""itemB"":""jump up and down"",""categoryA"":""physiological"",""categoryB"":""physical"",""attention_check"":false,""correct_response"":null}","{""itemA"":""get tired"",""itemB"":""get tired"",""categoryA"":""physiological"",""categoryB"":""physiological"",""attention_check"":false,""correct_response"":null}","{""itemA"":""get tired"",""itemB"":""think about something"",""categoryA"":""physiological"",""categoryB"":""cognitive"",""attention_check"":false,""correct_response"":null}","[0,1,2,3,4,5,6,7,8,9,10,11,12,13,14]","","","","","","","","",""
"","","","","","survey-slider","9","null","168908","2A1981939AC645E9A366B1632F22F230","1f2beffb-56c9-4435-b0ce-b2ff35403d3a","c9908d3c-c6c0-4ff0-8197-ad6b853728e6","","22607","","{""Q0"":""56"",""Q1"":""61"",""Q2"":""66"",""Q3"":""71"",""Q4"":""69"",""Q5"":""87"",""Q6"":""77"",""Q7"":""87"",""Q8"":""71"",""Q9"":""69"",""Q10"":""83"",""Q11"":""69"",""Q12"":""69"",""Q13"":""64"",""Q14"":""58""}","","{""itemA"":""think about something"",""itemB"":""jump up and down"",""categoryA"":""cognitive"",""categoryB"":""physical"",""attention_check"":false,""correct_response"":null}","{""itemA"":""think about something"",""itemB"":""remember something"",""categoryA"":""cognitive"",""categoryB"":""cognitive"",""attention_check"":false,""correct_response"":null}","{""itemA"":""think about something"",""itemB"":""think about something"",""categoryA"":""cognitive"",""categoryB"":""cognitive"",""attention_check"":false,""correct_response"":null}","{""itemA"":""think about something"",""itemB"":""get sick"",""categoryA"":""cognitive"",""categoryB"":""physiological"",""attention_check"":false,""correct_response"":null}","{""itemA"":""think about something"",""itemB"":""hear something"",""categoryA"":""cognitive"",""categoryB"":""cognitive"",""attention_check"":false,""correct_response"":null}","{""itemA"":""think about something"",""itemB"":""choose what to do"",""categoryA"":""cognitive"",""categoryB"":""cognitive"",""attention_check"":false,""correct_response"":null}","{""itemA"":""think about something"",""itemB"":""sit down"",""categoryA"":""cognitive"",""categoryB"":""physical"",""attention_check"":false,""correct_response"":null}","{""itemA"":""think about something"",""itemB"":""kick something"",""categoryA"":""cognitive"",""categoryB"":""physical"",""attention_check"":false,""correct_response"":null}","{""itemA"":""think about something"",""itemB"":""reach for something"",""categoryA"":""cognitive"",""categoryB"":""physical"",""attention_check"":false,""correct_response"":null}","{""itemA"":""think about something"",""itemB"":""see something"",""categoryA"":""cognitive"",""categoryB"":""cognitive"",""attention_check"":false,""correct_response"":null}","{""itemA"":""think about something"",""itemB"":""experience pain"",""categoryA"":""cognitive"",""categoryB"":""physiological"",""attention_check"":false,""correct_response"":null}","{""itemA"":""think about something"",""itemB"":""become hungry"",""categoryA"":""cognitive"",""categoryB"":""physiological"",""attention_check"":false,""correct_response"":null}","{""itemA"":""think about something"",""itemB"":""feel scared"",""categoryA"":""cognitive"",""categoryB"":""physiological"",""attention_check"":false,""correct_response"":null}","{""itemA"":""think about something"",""itemB"":""take a walk"",""categoryA"":""cognitive"",""categoryB"":""physical"",""attention_check"":false,""correct_response"":null}","{""itemA"":""think about something"",""itemB"":""get tired"",""categoryA"":""cognitive"",""categoryB"":""physiological"",""attention_check"":false,""correct_response"":null}","[0,1,2,3,4,5,6,7,8,9,10,11,12,13,14]","","","","","","","","",""
"","","","","","survey-slider","10","null","185306","2A1981939AC645E9A366B1632F22F230","1f2beffb-56c9-4435-b0ce-b2ff35403d3a","c9908d3c-c6c0-4ff0-8197-ad6b853728e6","","16390","","{""Q0"":""66"",""Q1"":""61"",""Q2"":""64"",""Q3"":""76"",""Q4"":""61"",""Q5"":""67"",""Q6"":""63"",""Q7"":""81"",""Q8"":""77"",""Q9"":""85"",""Q10"":""75"",""Q11"":""90"",""Q12"":""71"",""Q13"":""73"",""Q14"":""74""}","","{""itemA"":""kick something"",""itemB"":""remember something"",""categoryA"":""physical"",""categoryB"":""cognitive"",""attention_check"":false,""correct_response"":null}","{""itemA"":""kick something"",""itemB"":""get sick"",""categoryA"":""physical"",""categoryB"":""physiological"",""attention_check"":false,""correct_response"":null}","{""itemA"":""kick something"",""itemB"":""kick something"",""categoryA"":""physical"",""categoryB"":""physical"",""attention_check"":false,""correct_response"":null}","{""itemA"":""kick something"",""itemB"":""become hungry"",""categoryA"":""physical"",""categoryB"":""physiological"",""attention_check"":false,""correct_response"":null}","{""itemA"":""kick something"",""itemB"":""get tired"",""categoryA"":""physical"",""categoryB"":""physiological"",""attention_check"":false,""correct_response"":null}","{""itemA"":""kick something"",""itemB"":""hear something"",""categoryA"":""physical"",""categoryB"":""cognitive"",""attention_check"":false,""correct_response"":null}","{""itemA"":""kick something"",""itemB"":""think about something"",""categoryA"":""physical"",""categoryB"":""cognitive"",""attention_check"":false,""correct_response"":null}","{""itemA"":""kick something"",""itemB"":""take a walk"",""categoryA"":""physical"",""categoryB"":""physical"",""attention_check"":false,""correct_response"":null}","{""itemA"":""kick something"",""itemB"":""sit down"",""categoryA"":""physical"",""categoryB"":""physical"",""attention_check"":false,""correct_response"":null}","{""itemA"":""kick something"",""itemB"":""see something"",""categoryA"":""physical"",""categoryB"":""cognitive"",""attention_check"":false,""correct_response"":null}","{""itemA"":""kick something"",""itemB"":""reach for something"",""categoryA"":""physical"",""categoryB"":""physical"",""attention_check"":false,""correct_response"":null}","{""itemA"":""kick something"",""itemB"":""jump up and down"",""categoryA"":""physical"",""categoryB"":""physical"",""attention_check"":false,""correct_response"":null}","{""itemA"":""kick something"",""itemB"":""feel scared"",""categoryA"":""physical"",""categoryB"":""physiological"",""attention_check"":false,""correct_response"":null}","{""itemA"":""kick something"",""itemB"":""choose what to do"",""categoryA"":""physical"",""categoryB"":""cognitive"",""attention_check"":false,""correct_response"":null}","{""itemA"":""kick something"",""itemB"":""experience pain"",""categoryA"":""physical"",""categoryB"":""physiological"",""attention_check"":false,""correct_response"":null}","[0,1,2,3,4,5,6,7,8,9,10,11,12,13,14]","","","","","","","","",""
"","","","","","survey-slider","11","null","226349","2A1981939AC645E9A366B1632F22F230","1f2beffb-56c9-4435-b0ce-b2ff35403d3a","c9908d3c-c6c0-4ff0-8197-ad6b853728e6","","41028.39999997616","","{""Q0"":""100"",""Q1"":""96"",""Q2"":""31"",""Q3"":""89"",""Q4"":""90"",""Q5"":""69"",""Q6"":""86"",""Q7"":""78"",""Q8"":""83"",""Q9"":""90"",""Q10"":""84"",""Q11"":""85"",""Q12"":""80"",""Q13"":""75"",""Q14"":""71"",""Q15"":""70""}","","{""itemA"":""experience pain"",""itemB"":""sit down"",""categoryA"":""physiological"",""categoryB"":""physical"",""attention_check"":false,""correct_response"":null}","{""itemA"":""experience pain"",""itemB"":""think about something"",""categoryA"":""physiological"",""categoryB"":""cognitive"",""attention_check"":false,""correct_response"":null}","{""itemA"":""experience pain"",""itemB"":""become hungry"",""categoryA"":""physiological"",""categoryB"":""physiological"",""attention_check"":false,""correct_response"":null}","{""itemA"":""experience pain"",""itemB"":""get tired"",""categoryA"":""physiological"",""categoryB"":""physiological"",""attention_check"":false,""correct_response"":null}","{""itemA"":""experience pain"",""itemB"":""feel scared"",""categoryA"":""physiological"",""categoryB"":""physiological"",""attention_check"":false,""correct_response"":null}","{""itemA"":""experience pain"",""itemB"":""see something"",""categoryA"":""physiological"",""categoryB"":""cognitive"",""attention_check"":false,""correct_response"":null}","{""itemA"":""experience pain"",""itemB"":""remember something"",""categoryA"":""physiological"",""categoryB"":""cognitive"",""attention_check"":false,""correct_response"":null}","{""itemA"":null,""itemB"":null,""categoryA"":null,""categoryB"":null,""attention_check"":true,""correct_response"":75}","{""itemA"":""experience pain"",""itemB"":""jump up and down"",""categoryA"":""physiological"",""categoryB"":""physical"",""attention_check"":false,""correct_response"":null}","{""itemA"":""experience pain"",""itemB"":""choose what to do"",""categoryA"":""physiological"",""categoryB"":""cognitive"",""attention_check"":false,""correct_response"":null}","{""itemA"":""experience pain"",""itemB"":""hear something"",""categoryA"":""physiological"",""categoryB"":""cognitive"",""attention_check"":false,""correct_response"":null}","{""itemA"":""experience pain"",""itemB"":""kick something"",""categoryA"":""physiological"",""categoryB"":""physical"",""attention_check"":false,""correct_response"":null}","{""itemA"":""experience pain"",""itemB"":""experience pain"",""categoryA"":""physiological"",""categoryB"":""physiological"",""attention_check"":false,""correct_response"":null}","{""itemA"":""experience pain"",""itemB"":""get sick"",""categoryA"":""physiological"",""categoryB"":""physiological"",""attention_check"":false,""correct_response"":null}","{""itemA"":""experience pain"",""itemB"":""take a walk"",""categoryA"":""physiological"",""categoryB"":""physical"",""attention_check"":false,""correct_response"":null}","[0,1,2,3,4,5,6,7,8,9,10,11,12,13,14,15]","{""itemA"":""experience pain"",""itemB"":""reach for something"",""categoryA"":""physiological"",""categoryB"":""physical"",""attention_check"":false,""correct_response"":null}","","","","","","","",""
"","","","","","survey-slider","12","null","244623","2A1981939AC645E9A366B1632F22F230","1f2beffb-56c9-4435-b0ce-b2ff35403d3a","c9908d3c-c6c0-4ff0-8197-ad6b853728e6","","18268.80000001192","","{""Q0"":""74"",""Q1"":""68"",""Q2"":""69"",""Q3"":""98"",""Q4"":""68"",""Q5"":""57"",""Q6"":""73"",""Q7"":""73"",""Q8"":""79"",""Q9"":""66"",""Q10"":""89"",""Q11"":""69"",""Q12"":""68"",""Q13"":""72"",""Q14"":""70""}","","{""itemA"":""choose what to do"",""itemB"":""think about something"",""categoryA"":""cognitive"",""categoryB"":""cognitive"",""attention_check"":false,""correct_response"":null}","{""itemA"":""choose what to do"",""itemB"":""jump up and down"",""categoryA"":""cognitive"",""categoryB"":""physical"",""attention_check"":false,""correct_response"":null}","{""itemA"":""choose what to do"",""itemB"":""feel scared"",""categoryA"":""cognitive"",""categoryB"":""physiological"",""attention_check"":false,""correct_response"":null}","{""itemA"":""choose what to do"",""itemB"":""become hungry"",""categoryA"":""cognitive"",""categoryB"":""physiological"",""attention_check"":false,""correct_response"":null}","{""itemA"":""choose what to do"",""itemB"":""choose what to do"",""categoryA"":""cognitive"",""categoryB"":""cognitive"",""attention_check"":false,""correct_response"":null}","{""itemA"":""choose what to do"",""itemB"":""sit down"",""categoryA"":""cognitive"",""categoryB"":""physical"",""attention_check"":false,""correct_response"":null}","{""itemA"":""choose what to do"",""itemB"":""kick something"",""categoryA"":""cognitive"",""categoryB"":""physical"",""attention_check"":false,""correct_response"":null}","{""itemA"":""choose what to do"",""itemB"":""remember something"",""categoryA"":""cognitive"",""categoryB"":""cognitive"",""attention_check"":false,""correct_response"":null}","{""itemA"":""choose what to do"",""itemB"":""hear something"",""categoryA"":""cognitive"",""categoryB"":""cognitive"",""attention_check"":false,""correct_response"":null}","{""itemA"":""choose what to do"",""itemB"":""reach for something"",""categoryA"":""cognitive"",""categoryB"":""physical"",""attention_check"":false,""correct_response"":null}","{""itemA"":""choose what to do"",""itemB"":""get sick"",""categoryA"":""cognitive"",""categoryB"":""physiological"",""attention_check"":false,""correct_response"":null}","{""itemA"":""choose what to do"",""itemB"":""get tired"",""categoryA"":""cognitive"",""categoryB"":""physiological"",""attention_check"":false,""correct_response"":null}","{""itemA"":""choose what to do"",""itemB"":""experience pain"",""categoryA"":""cognitive"",""categoryB"":""physiological"",""attention_check"":false,""correct_response"":null}","{""itemA"":""choose what to do"",""itemB"":""see something"",""categoryA"":""cognitive"",""categoryB"":""cognitive"",""attention_check"":false,""correct_response"":null}","{""itemA"":""choose what to do"",""itemB"":""take a walk"",""categoryA"":""cognitive"",""categoryB"":""physical"",""attention_check"":false,""correct_response"":null}","[0,1,2,3,4,5,6,7,8,9,10,11,12,13,14]","","","","","","","","",""
"","","","","","survey-slider","13","null","279242","2A1981939AC645E9A366B1632F22F230","1f2beffb-56c9-4435-b0ce-b2ff35403d3a","c9908d3c-c6c0-4ff0-8197-ad6b853728e6","","34613.19999998808","","{""Q0"":""100"",""Q1"":""95"",""Q2"":""87"",""Q3"":""100"",""Q4"":""69"",""Q5"":""94"",""Q6"":""52"",""Q7"":""76"",""Q8"":""50"",""Q9"":""88"",""Q10"":""0"",""Q11"":""72"",""Q12"":""78"",""Q13"":""79"",""Q14"":""78"",""Q15"":""87""}","","{""itemA"":""jump up and down"",""itemB"":""get tired"",""categoryA"":""physical"",""categoryB"":""physiological"",""attention_check"":false,""correct_response"":null}","{""itemA"":""jump up and down"",""itemB"":""jump up and down"",""categoryA"":""physical"",""categoryB"":""physical"",""attention_check"":false,""correct_response"":null}","{""itemA"":""jump up and down"",""itemB"":""get sick"",""categoryA"":""physical"",""categoryB"":""physiological"",""attention_check"":false,""correct_response"":null}","{""itemA"":""jump up and down"",""itemB"":""become hungry"",""categoryA"":""physical"",""categoryB"":""physiological"",""attention_check"":false,""correct_response"":null}","{""itemA"":""jump up and down"",""itemB"":""see something"",""categoryA"":""physical"",""categoryB"":""cognitive"",""attention_check"":false,""correct_response"":null}","{""itemA"":""jump up and down"",""itemB"":""choose what to do"",""categoryA"":""physical"",""categoryB"":""cognitive"",""attention_check"":false,""correct_response"":null}","{""itemA"":""jump up and down"",""itemB"":""hear something"",""categoryA"":""physical"",""categoryB"":""cognitive"",""attention_check"":false,""correct_response"":null}","{""itemA"":""jump up and down"",""itemB"":""remember something"",""categoryA"":""physical"",""categoryB"":""cognitive"",""attention_check"":false,""correct_response"":null}","{""itemA"":""jump up and down"",""itemB"":""experience pain"",""categoryA"":""physical"",""categoryB"":""physiological"",""attention_check"":false,""correct_response"":null}","{""itemA"":""jump up and down"",""itemB"":""sit down"",""categoryA"":""physical"",""categoryB"":""physical"",""attention_check"":false,""correct_response"":null}","{""itemA"":null,""itemB"":null,""categoryA"":null,""categoryB"":null,""attention_check"":true,""correct_response"":null}","{""itemA"":""jump up and down"",""itemB"":""kick something"",""categoryA"":""physical"",""categoryB"":""physical"",""attention_check"":false,""correct_response"":null}","{""itemA"":""jump up and down"",""itemB"":""think about something"",""categoryA"":""physical"",""categoryB"":""cognitive"",""attention_check"":false,""correct_response"":null}","{""itemA"":""jump up and down"",""itemB"":""reach for something"",""categoryA"":""physical"",""categoryB"":""physical"",""attention_check"":false,""correct_response"":null}","{""itemA"":""jump up and down"",""itemB"":""take a walk"",""categoryA"":""physical"",""categoryB"":""physical"",""attention_check"":false,""correct_response"":null}","[0,1,2,3,4,5,6,7,8,9,10,11,12,13,14,15]","{""itemA"":""jump up and down"",""itemB"":""feel scared"",""categoryA"":""physical"",""categoryB"":""physiological"",""attention_check"":false,""correct_response"":null}","","","","","","","",""
"","","","","","survey-slider","14","null","300683","2A1981939AC645E9A366B1632F22F230","1f2beffb-56c9-4435-b0ce-b2ff35403d3a","c9908d3c-c6c0-4ff0-8197-ad6b853728e6","","21434.899999976158","","{""Q0"":""95"",""Q1"":""98"",""Q2"":""89"",""Q3"":""91"",""Q4"":""89"",""Q5"":""81"",""Q6"":""77"",""Q7"":""81"",""Q8"":""64"",""Q9"":""93"",""Q10"":""80"",""Q11"":""87"",""Q12"":""93"",""Q13"":""83"",""Q14"":""86""}","","{""itemA"":""take a walk"",""itemB"":""feel scared"",""categoryA"":""physical"",""categoryB"":""physiological"",""attention_check"":false,""correct_response"":null}","{""itemA"":""take a walk"",""itemB"":""kick something"",""categoryA"":""physical"",""categoryB"":""physical"",""attention_check"":false,""correct_response"":null}","{""itemA"":""take a walk"",""itemB"":""get sick"",""categoryA"":""physical"",""categoryB"":""physiological"",""attention_check"":false,""correct_response"":null}","{""itemA"":""take a walk"",""itemB"":""jump up and down"",""categoryA"":""physical"",""categoryB"":""physical"",""attention_check"":false,""correct_response"":null}","{""itemA"":""take a walk"",""itemB"":""think about something"",""categoryA"":""physical"",""categoryB"":""cognitive"",""attention_check"":false,""correct_response"":null}","{""itemA"":""take a walk"",""itemB"":""take a walk"",""categoryA"":""physical"",""categoryB"":""physical"",""attention_check"":false,""correct_response"":null}","{""itemA"":""take a walk"",""itemB"":""get tired"",""categoryA"":""physical"",""categoryB"":""physiological"",""attention_check"":false,""correct_response"":null}","{""itemA"":""take a walk"",""itemB"":""reach for something"",""categoryA"":""physical"",""categoryB"":""physical"",""attention_check"":false,""correct_response"":null}","{""itemA"":""take a walk"",""itemB"":""remember something"",""categoryA"":""physical"",""categoryB"":""cognitive"",""attention_check"":false,""correct_response"":null}","{""itemA"":""take a walk"",""itemB"":""sit down"",""categoryA"":""physical"",""categoryB"":""physical"",""attention_check"":false,""correct_response"":null}","{""itemA"":""take a walk"",""itemB"":""choose what to do"",""categoryA"":""physical"",""categoryB"":""cognitive"",""attention_check"":false,""correct_response"":null}","{""itemA"":""take a walk"",""itemB"":""hear something"",""categoryA"":""physical"",""categoryB"":""cognitive"",""attention_check"":false,""correct_response"":null}","{""itemA"":""take a walk"",""itemB"":""see something"",""categoryA"":""physical"",""categoryB"":""cognitive"",""attention_check"":false,""correct_response"":null}","{""itemA"":""take a walk"",""itemB"":""become hungry"",""categoryA"":""physical"",""categoryB"":""physiological"",""attention_check"":false,""correct_response"":null}","{""itemA"":""take a walk"",""itemB"":""experience pain"",""categoryA"":""physical"",""categoryB"":""physiological"",""attention_check"":false,""correct_response"":null}","[0,1,2,3,4,5,6,7,8,9,10,11,12,13,14]","","","","","","","","",""
"","","","","","survey-slider","15","null","324611","2A1981939AC645E9A366B1632F22F230","1f2beffb-56c9-4435-b0ce-b2ff35403d3a","c9908d3c-c6c0-4ff0-8197-ad6b853728e6","","23922.900000035763","","{""Q0"":""77"",""Q1"":""91"",""Q2"":""86"",""Q3"":""86"",""Q4"":""75"",""Q5"":""82"",""Q6"":""87"",""Q7"":""92"",""Q8"":""92"",""Q9"":""91"",""Q10"":""82"",""Q11"":""86"",""Q12"":""50"",""Q13"":""86"",""Q14"":""77""}","","{""itemA"":""get sick"",""itemB"":""remember something"",""categoryA"":""physiological"",""categoryB"":""cognitive"",""attention_check"":false,""correct_response"":null}","{""itemA"":""get sick"",""itemB"":""take a walk"",""categoryA"":""physiological"",""categoryB"":""physical"",""attention_check"":false,""correct_response"":null}","{""itemA"":""get sick"",""itemB"":""choose what to do"",""categoryA"":""physiological"",""categoryB"":""cognitive"",""attention_check"":false,""correct_response"":null}","{""itemA"":""get sick"",""itemB"":""feel scared"",""categoryA"":""physiological"",""categoryB"":""physiological"",""attention_check"":false,""correct_response"":null}","{""itemA"":""get sick"",""itemB"":""jump up and down"",""categoryA"":""physiological"",""categoryB"":""physical"",""attention_check"":false,""correct_response"":null}","{""itemA"":""get sick"",""itemB"":""get tired"",""categoryA"":""physiological"",""categoryB"":""physiological"",""attention_check"":false,""correct_response"":null}","{""itemA"":""get sick"",""itemB"":""kick something"",""categoryA"":""physiological"",""categoryB"":""physical"",""attention_check"":false,""correct_response"":null}","{""itemA"":""get sick"",""itemB"":""reach for something"",""categoryA"":""physiological"",""categoryB"":""physical"",""attention_check"":false,""correct_response"":null}","{""itemA"":""get sick"",""itemB"":""see something"",""categoryA"":""physiological"",""categoryB"":""cognitive"",""attention_check"":false,""correct_response"":null}","{""itemA"":""get sick"",""itemB"":""hear something"",""categoryA"":""physiological"",""categoryB"":""cognitive"",""attention_check"":false,""correct_response"":null}","{""itemA"":""get sick"",""itemB"":""get sick"",""categoryA"":""physiological"",""categoryB"":""physiological"",""attention_check"":false,""correct_response"":null}","{""itemA"":""get sick"",""itemB"":""become hungry"",""categoryA"":""physiological"",""categoryB"":""physiological"",""attention_check"":false,""correct_response"":null}","{""itemA"":""get sick"",""itemB"":""think about something"",""categoryA"":""physiological"",""categoryB"":""cognitive"",""attention_check"":false,""correct_response"":null}","{""itemA"":""get sick"",""itemB"":""experience pain"",""categoryA"":""physiological"",""categoryB"":""physiological"",""attention_check"":false,""correct_response"":null}","{""itemA"":""get sick"",""itemB"":""sit down"",""categoryA"":""physiological"",""categoryB"":""physical"",""attention_check"":false,""correct_response"":null}","[0,1,2,3,4,5,6,7,8,9,10,11,12,13,14]","","","","","","","","",""
"","","","","","survey-slider","16","null","358617","2A1981939AC645E9A366B1632F22F230","1f2beffb-56c9-4435-b0ce-b2ff35403d3a","c9908d3c-c6c0-4ff0-8197-ad6b853728e6","","33999.200000047684","","{""Q0"":""100"",""Q1"":""28"",""Q2"":""69"",""Q3"":""77"",""Q4"":""80"",""Q5"":""68"",""Q6"":""72"",""Q7"":""56"",""Q8"":""71"",""Q9"":""64"",""Q10"":""71"",""Q11"":""100"",""Q12"":""78"",""Q13"":""72"",""Q14"":""72"",""Q15"":""50""}","","{""itemA"":""become hungry"",""itemB"":""hear something"",""categoryA"":""physiological"",""categoryB"":""cognitive"",""attention_check"":false,""correct_response"":null}","{""itemA"":""become hungry"",""itemB"":""get tired"",""categoryA"":""physiological"",""categoryB"":""physiological"",""attention_check"":false,""correct_response"":null}","{""itemA"":""become hungry"",""itemB"":""experience pain"",""categoryA"":""physiological"",""categoryB"":""physiological"",""attention_check"":false,""correct_response"":null}","{""itemA"":""become hungry"",""itemB"":""feel scared"",""categoryA"":""physiological"",""categoryB"":""physiological"",""attention_check"":false,""correct_response"":null}","{""itemA"":""become hungry"",""itemB"":""reach for something"",""categoryA"":""physiological"",""categoryB"":""physical"",""attention_check"":false,""correct_response"":null}","{""itemA"":""become hungry"",""itemB"":""see something"",""categoryA"":""physiological"",""categoryB"":""cognitive"",""attention_check"":false,""correct_response"":null}","{""itemA"":""become hungry"",""itemB"":""think about something"",""categoryA"":""physiological"",""categoryB"":""cognitive"",""attention_check"":false,""correct_response"":null}","{""itemA"":""become hungry"",""itemB"":""get sick"",""categoryA"":""physiological"",""categoryB"":""physiological"",""attention_check"":false,""correct_response"":null}","{""itemA"":""become hungry"",""itemB"":""jump up and down"",""categoryA"":""physiological"",""categoryB"":""physical"",""attention_check"":false,""correct_response"":null}","{""itemA"":""become hungry"",""itemB"":""become hungry"",""categoryA"":""physiological"",""categoryB"":""physiological"",""attention_check"":false,""correct_response"":null}","{""itemA"":""become hungry"",""itemB"":""choose what to do"",""categoryA"":""physiological"",""categoryB"":""cognitive"",""attention_check"":false,""correct_response"":null}","{""itemA"":null,""itemB"":null,""categoryA"":null,""categoryB"":null,""attention_check"":true,""correct_response"":100}","{""itemA"":""become hungry"",""itemB"":""kick something"",""categoryA"":""physiological"",""categoryB"":""physical"",""attention_check"":false,""correct_response"":null}","{""itemA"":""become hungry"",""itemB"":""take a walk"",""categoryA"":""physiological"",""categoryB"":""physical"",""attention_check"":false,""correct_response"":null}","{""itemA"":""become hungry"",""itemB"":""remember something"",""categoryA"":""physiological"",""categoryB"":""cognitive"",""attention_check"":false,""correct_response"":null}","[0,1,2,3,4,5,6,7,8,9,10,11,12,13,14,15]","{""itemA"":""become hungry"",""itemB"":""sit down"",""categoryA"":""physiological"",""categoryB"":""physical"",""attention_check"":false,""correct_response"":null}","","","","","","","",""
"","","","","","survey-slider","17","null","376423","2A1981939AC645E9A366B1632F22F230","1f2beffb-56c9-4435-b0ce-b2ff35403d3a","c9908d3c-c6c0-4ff0-8197-ad6b853728e6","","17797.19999998808","","{""Q0"":""78"",""Q1"":""70"",""Q2"":""65"",""Q3"":""69"",""Q4"":""33"",""Q5"":""69"",""Q6"":""64"",""Q7"":""62"",""Q8"":""85"",""Q9"":""76"",""Q10"":""66"",""Q11"":""62"",""Q12"":""67"",""Q13"":""62"",""Q14"":""72""}","","{""itemA"":""hear something"",""itemB"":""think about something"",""categoryA"":""cognitive"",""categoryB"":""cognitive"",""attention_check"":false,""correct_response"":null}","{""itemA"":""hear something"",""itemB"":""jump up and down"",""categoryA"":""cognitive"",""categoryB"":""physical"",""attention_check"":false,""correct_response"":null}","{""itemA"":""hear something"",""itemB"":""become hungry"",""categoryA"":""cognitive"",""categoryB"":""physiological"",""attention_check"":false,""correct_response"":null}","{""itemA"":""hear something"",""itemB"":""remember something"",""categoryA"":""cognitive"",""categoryB"":""cognitive"",""attention_check"":false,""correct_response"":null}","{""itemA"":""hear something"",""itemB"":""kick something"",""categoryA"":""cognitive"",""categoryB"":""physical"",""attention_check"":false,""correct_response"":null}","{""itemA"":""hear something"",""itemB"":""reach for something"",""categoryA"":""cognitive"",""categoryB"":""physical"",""attention_check"":false,""correct_response"":null}","{""itemA"":""hear something"",""itemB"":""get sick"",""categoryA"":""cognitive"",""categoryB"":""physiological"",""attention_check"":false,""correct_response"":null}","{""itemA"":""hear something"",""itemB"":""experience pain"",""categoryA"":""cognitive"",""categoryB"":""physiological"",""attention_check"":false,""correct_response"":null}","{""itemA"":""hear something"",""itemB"":""see something"",""categoryA"":""cognitive"",""categoryB"":""cognitive"",""attention_check"":false,""correct_response"":null}","{""itemA"":""hear something"",""itemB"":""feel scared"",""categoryA"":""cognitive"",""categoryB"":""physiological"",""attention_check"":false,""correct_response"":null}","{""itemA"":""hear something"",""itemB"":""sit down"",""categoryA"":""cognitive"",""categoryB"":""physical"",""attention_check"":false,""correct_response"":null}","{""itemA"":""hear something"",""itemB"":""hear something"",""categoryA"":""cognitive"",""categoryB"":""cognitive"",""attention_check"":false,""correct_response"":null}","{""itemA"":""hear something"",""itemB"":""get tired"",""categoryA"":""cognitive"",""categoryB"":""physiological"",""attention_check"":false,""correct_response"":null}","{""itemA"":""hear something"",""itemB"":""take a walk"",""categoryA"":""cognitive"",""categoryB"":""physical"",""attention_check"":false,""correct_response"":null}","{""itemA"":""hear something"",""itemB"":""choose what to do"",""categoryA"":""cognitive"",""categoryB"":""cognitive"",""attention_check"":false,""correct_response"":null}","[0,1,2,3,4,5,6,7,8,9,10,11,12,13,14]","","","","","","","","",""
"","","","","","survey-slider","18","null","396148","2A1981939AC645E9A366B1632F22F230","1f2beffb-56c9-4435-b0ce-b2ff35403d3a","c9908d3c-c6c0-4ff0-8197-ad6b853728e6","","19719.30000001192","","{""Q0"":""90"",""Q1"":""91"",""Q2"":""100"",""Q3"":""92"",""Q4"":""91"",""Q5"":""84"",""Q6"":""89"",""Q7"":""85"",""Q8"":""86"",""Q9"":""88"",""Q10"":""91"",""Q11"":""86"",""Q12"":""65"",""Q13"":""83"",""Q14"":""84""}","","{""itemA"":""sit down"",""itemB"":""hear something"",""categoryA"":""physical"",""categoryB"":""cognitive"",""attention_check"":false,""correct_response"":null}","{""itemA"":""sit down"",""itemB"":""experience pain"",""categoryA"":""physical"",""categoryB"":""physiological"",""attention_check"":false,""correct_response"":null}","{""itemA"":""sit down"",""itemB"":""choose what to do"",""categoryA"":""physical"",""categoryB"":""cognitive"",""attention_check"":false,""correct_response"":null}","{""itemA"":""sit down"",""itemB"":""become hungry"",""categoryA"":""physical"",""categoryB"":""physiological"",""attention_check"":false,""correct_response"":null}","{""itemA"":""sit down"",""itemB"":""take a walk"",""categoryA"":""physical"",""categoryB"":""physical"",""attention_check"":false,""correct_response"":null}","{""itemA"":""sit down"",""itemB"":""get tired"",""categoryA"":""physical"",""categoryB"":""physiological"",""attention_check"":false,""correct_response"":null}","{""itemA"":""sit down"",""itemB"":""jump up and down"",""categoryA"":""physical"",""categoryB"":""physical"",""attention_check"":false,""correct_response"":null}","{""itemA"":""sit down"",""itemB"":""feel scared"",""categoryA"":""physical"",""categoryB"":""physiological"",""attention_check"":false,""correct_response"":null}","{""itemA"":""sit down"",""itemB"":""kick something"",""categoryA"":""physical"",""categoryB"":""physical"",""attention_check"":false,""correct_response"":null}","{""itemA"":""sit down"",""itemB"":""reach for something"",""categoryA"":""physical"",""categoryB"":""physical"",""attention_check"":false,""correct_response"":null}","{""itemA"":""sit down"",""itemB"":""get sick"",""categoryA"":""physical"",""categoryB"":""physiological"",""attention_check"":false,""correct_response"":null}","{""itemA"":""sit down"",""itemB"":""think about something"",""categoryA"":""physical"",""categoryB"":""cognitive"",""attention_check"":false,""correct_response"":null}","{""itemA"":""sit down"",""itemB"":""see something"",""categoryA"":""physical"",""categoryB"":""cognitive"",""attention_check"":false,""correct_response"":null}","{""itemA"":""sit down"",""itemB"":""remember something"",""categoryA"":""physical"",""categoryB"":""cognitive"",""attention_check"":false,""correct_response"":null}","{""itemA"":""sit down"",""itemB"":""sit down"",""categoryA"":""physical"",""categoryB"":""physical"",""attention_check"":false,""correct_response"":null}","[0,1,2,3,4,5,6,7,8,9,10,11,12,13,14]","","","","","","","","",""
"","","","","","instructions","19","2.0.0","406743","2A1981939AC645E9A366B1632F22F230","1f2beffb-56c9-4435-b0ce-b2ff35403d3a","c9908d3c-c6c0-4ff0-8197-ad6b853728e6","","10593","","","[{""page_index"":0,""viewing_time"":10593}]","","","","","","","","","","","","","","","","","","","","","","","","",""
"","","","","","video-button-response","20","2.0.0","435744","2A1981939AC645E9A366B1632F22F230","1f2beffb-56c9-4435-b0ce-b2ff35403d3a","c9908d3c-c6c0-4ff0-8197-ad6b853728e6","example_videos","28965","[""video/example-video-circles.mp4""]","0","","","","","","","","","","","","","","","","","","","","","","","","","",""
"","","","","","free-sort","21","2.0.1","678192","2A1981939AC645E9A366B1632F22F230","1f2beffb-56c9-4435-b0ce-b2ff35403d3a","c9908d3c-c6c0-4ff0-8197-ad6b853728e6","","242442","","","","","","","","","","","","","","","","","","","","","[{""src"":""images/items-circles/img13.png"",""x"":610.4166666666667,""y"":0},{""src"":""images/items-circles/img4.png"",""x"":-60.41666666666666,""y"":550},{""src"":""images/items-circles/img9.png"",""x"":610.4166666666667,""y"":183.33333333333334},{""src"":""images/items-circles/img8.png"",""x"":-60.41666666666666,""y"":366.6666666666667},{""src"":""images/items-circles/img5.png"",""x"":610.4166666666667,""y"":366.6666666666667},{""src"":""images/items-circles/img10.png"",""x"":-60.41666666666666,""y"":183.33333333333334},{""src"":""images/items-circles/img15.png"",""x"":610.4166666666667,""y"":550},{""src"":""images/items-circles/img11.png"",""x"":-60.41666666666666,""y"":0},{""src"":""images/items-circles/img7.png"",""x"":793.75,""y"":0},{""src"":""images/items-circles/img3.png"",""x"":-243.75,""y"":550},{""src"":""images/items-circles/img1.png"",""x"":793.75,""y"":183.33333333333334},{""src"":""images/items-circles/img6.png"",""x"":-243.75,""y"":366.6666666666667},{""src"":""images/items-circles/img2.png"",""x"":793.75,""y"":366.6666666666667},{""src"":""images/items-circles/img12.png"",""x"":-243.75,""y"":183.33333333333334},{""src"":""images/items-circles/img14.png"",""x"":793.75,""y"":550}]","[{""src"":""images/items-circles/img11.png"",""x"":-44,""y"":91},{""src"":""images/items-circles/img11.png"",""x"":266,""y"":600},{""src"":""images/items-circles/img13.png"",""x"":280,""y"":600},{""src"":""images/items-circles/img13.png"",""x"":280,""y"":600},{""src"":""images/items-circles/img11.png"",""x"":266,""y"":600},{""src"":""images/items-circles/img5.png"",""x"":545,""y"":600},{""src"":""images/items-circles/img14.png"",""x"":794,""y"":550},{""src"":""images/items-circles/img14.png"",""x"":804,""y"":442},{""src"":""images/items-circles/img1.png"",""x"":794,""y"":423},{""src"":""images/items-circles/img9.png"",""x"":610,""y"":183},{""src"":""images/items-circles/img7.png"",""x"":794,""y"":0},{""src"":""images/items-circles/img9.png"",""x"":610,""y"":183},{""src"":""images/items-circles/img7.png"",""x"":779,""y"":86},{""src"":""images/items-circles/img9.png"",""x"":610,""y"":183},{""src"":""images/items-circles/img7.png"",""x"":-285,""y"":280},{""src"":""images/items-circles/img7.png"",""x"":-285,""y"":280},{""src"":""images/items-circles/img4.png"",""x"":-231,""y"":600},{""src"":""images/items-circles/img15.png"",""x"":780,""y"":571},{""src"":""images/items-circles/img5.png"",""x"":328,""y"":600},{""src"":""images/items-circles/img15.png"",""x"":735,""y"":600},{""src"":""images/items-circles/img15.png"",""x"":738,""y"":600},{""src"":""images/items-circles/img15.png"",""x"":-265,""y"":512},{""src"":""images/items-circles/img7.png"",""x"":-265,""y"":506},{""src"":""images/items-circles/img6.png"",""x"":-244,""y"":367},{""src"":""images/items-circles/img8.png"",""x"":-60,""y"":367},{""src"":""images/items-circles/img3.png"",""x"":-244,""y"":550},{""src"":""images/items-circles/img6.png"",""x"":-205,""y"":486},{""src"":""images/items-circles/img12.png"",""x"":-226,""y"":301},{""src"":""images/items-circles/img10.png"",""x"":-60,""y"":183},{""src"":""images/items-circles/img8.png"",""x"":-60,""y"":367},{""src"":""images/items-circles/img10.png"",""x"":-60,""y"":183},{""src"":""images/items-circles/img12.png"",""x"":-223,""y"":417},{""src"":""images/items-circles/img10.png"",""x"":-60,""y"":183},{""src"":""images/items-circles/img8.png"",""x"":-60,""y"":367},{""src"":""images/items-circles/img10.png"",""x"":-60,""y"":183},{""src"":""images/items-circles/img12.png"",""x"":-223,""y"":417},{""src"":""images/items-circles/img8.png"",""x"":-60,""y"":367},{""src"":""images/items-circles/img12.png"",""x"":-223,""y"":417},{""src"":""images/items-circles/img8.png"",""x"":-60,""y"":367},{""src"":""images/items-circles/img10.png"",""x"":-60,""y"":183},{""src"":""images/items-circles/img8.png"",""x"":-60,""y"":367},{""src"":""images/items-circles/img9.png"",""x"":610,""y"":183},{""src"":""images/items-circles/img2.png"",""x"":796,""y"":484},{""src"":""images/items-circles/img14.png"",""x"":-19,""y"":317},{""src"":""images/items-circles/img10.png"",""x"":-55,""y"":305},{""src"":""images/items-circles/img9.png"",""x"":610,""y"":183},{""src"":""images/items-circles/img9.png"",""x"":610,""y"":183},{""src"":""images/items-circles/img1.png"",""x"":794,""y"":423},{""src"":""images/items-circles/img9.png"",""x"":610,""y"":183},{""src"":""images/items-circles/img1.png"",""x"":794,""y"":423},{""src"":""images/items-circles/img1.png"",""x"":794,""y"":423},{""src"":""images/items-circles/img9.png"",""x"":610,""y"":183},{""src"":""images/items-circles/img9.png"",""x"":467,""y"":515},{""src"":""images/items-circles/img5.png"",""x"":328,""y"":600},{""src"":""images/items-circles/img9.png"",""x"":452,""y"":600},{""src"":""images/items-circles/img9.png"",""x"":452,""y"":600},{""src"":""images/items-circles/img9.png"",""x"":322,""y"":600},{""src"":""images/items-circles/img9.png"",""x"":322,""y"":600},{""src"":""images/items-circles/img9.png"",""x"":322,""y"":600},{""src"":""images/items-circles/img11.png"",""x"":268,""y"":600},{""src"":""images/items-circles/img2.png"",""x"":821,""y"":600},{""src"":""images/items-circles/img2.png"",""x"":821,""y"":600},{""src"":""images/items-circles/img5.png"",""x"":773,""y"":600},{""src"":""images/items-circles/img1.png"",""x"":784,""y"":600},{""src"":""images/items-circles/img9.png"",""x"":322,""y"":600},{""src"":""images/items-circles/img1.png"",""x"":784,""y"":600},{""src"":""images/items-circles/img9.png"",""x"":339,""y"":600},{""src"":""images/items-circles/img2.png"",""x"":821,""y"":600},{""src"":""images/items-circles/img5.png"",""x"":773,""y"":600},{""src"":""images/items-circles/img9.png"",""x"":-265,""y"":600},{""src"":""images/items-circles/img2.png"",""x"":-193,""y"":600},{""src"":""images/items-circles/img11.png"",""x"":-207,""y"":600},{""src"":""images/items-circles/img1.png"",""x"":-226,""y"":600},{""src"":""images/items-circles/img2.png"",""x"":-193,""y"":600},{""src"":""images/items-circles/img13.png"",""x"":-249,""y"":600},{""src"":""images/items-circles/img5.png"",""x"":-239,""y"":600},{""src"":""images/items-circles/img6.png"",""x"":-187,""y"":600},{""src"":""images/items-circles/img14.png"",""x"":-225,""y"":600},{""src"":""images/items-circles/img12.png"",""x"":-234,""y"":600},{""src"":""images/items-circles/img3.png"",""x"":-242,""y"":600},{""src"":""images/items-circles/img7.png"",""x"":147,""y"":359},{""src"":""images/items-circles/img2.png"",""x"":117,""y"":369},{""src"":""images/items-circles/img15.png"",""x"":129,""y"":364},{""src"":""images/items-circles/img8.png"",""x"":167,""y"":303},{""src"":""images/items-circles/img2.png"",""x"":117,""y"":369},{""src"":""images/items-circles/img14.png"",""x"":393,""y"":163},{""src"":""images/items-circles/img12.png"",""x"":218,""y"":160},{""src"":""images/items-circles/img6.png"",""x"":391,""y"":190},{""src"":""images/items-circles/img7.png"",""x"":187,""y"":600},{""src"":""images/items-circles/img8.png"",""x"":167,""y"":527},{""src"":""images/items-circles/img2.png"",""x"":117,""y"":369},{""src"":""images/items-circles/img1.png"",""x"":-169,""y"":600},{""src"":""images/items-circles/img1.png"",""x"":-98,""y"":600},{""src"":""images/items-circles/img1.png"",""x"":133,""y"":404},{""src"":""images/items-circles/img3.png"",""x"":263,""y"":151},{""src"":""images/items-circles/img11.png"",""x"":-207,""y"":600},{""src"":""images/items-circles/img11.png"",""x"":41,""y"":600},{""src"":""images/items-circles/img11.png"",""x"":143,""y"":600},{""src"":""images/items-circles/img5.png"",""x"":360,""y"":201},{""src"":""images/items-circles/img9.png"",""x"":87,""y"":324},{""src"":""images/items-circles/img4.png"",""x"":260,""y"":210},{""src"":""images/items-circles/img13.png"",""x"":285,""y"":230},{""src"":""images/items-circles/img10.png"",""x"":322,""y"":255},{""src"":""images/items-circles/img8.png"",""x"":82,""y"":399},{""src"":""images/items-circles/img7.png"",""x"":259,""y"":219},{""src"":""images/items-circles/img11.png"",""x"":92,""y"":429}]","[{""src"":""images/items-circles/img13.png"",""x"":285,""y"":230},{""src"":""images/items-circles/img4.png"",""x"":260,""y"":210},{""src"":""images/items-circles/img9.png"",""x"":87,""y"":324},{""src"":""images/items-circles/img8.png"",""x"":82,""y"":399},{""src"":""images/items-circles/img5.png"",""x"":360,""y"":201},{""src"":""images/items-circles/img10.png"",""x"":322,""y"":255},{""src"":""images/items-circles/img15.png"",""x"":129,""y"":364},{""src"":""images/items-circles/img11.png"",""x"":92,""y"":429},{""src"":""images/items-circles/img7.png"",""x"":259,""y"":219},{""src"":""images/items-circles/img3.png"",""x"":263,""y"":151},{""src"":""images/items-circles/img1.png"",""x"":133,""y"":404},{""src"":""images/items-circles/img6.png"",""x"":391,""y"":190},{""src"":""images/items-circles/img2.png"",""x"":117,""y"":369},{""src"":""images/items-circles/img12.png"",""x"":218,""y"":160},{""src"":""images/items-circles/img14.png"",""x"":393,""y"":163}]","","","","",""
"","","","","","instructions","22","2.0.0","690355","2A1981939AC645E9A366B1632F22F230","1f2beffb-56c9-4435-b0ce-b2ff35403d3a","c9908d3c-c6c0-4ff0-8197-ad6b853728e6","","12158","","","[{""page_index"":0,""viewing_time"":12158}]","","","","","","","","","","","","","","","","","","","","","","","","",""
"","","","","","survey-html-form","23","2.0.0","709466","2A1981939AC645E9A366B1632F22F230","1f2beffb-56c9-4435-b0ce-b2ff35403d3a","c9908d3c-c6c0-4ff0-8197-ad6b853728e6","demographics_survey","19103","","{""feedback"":""none"",""age"":""51"",""gender"":""Female"",""other_gender"":"""",""race"":""Asian"",""other_race"":"""",""ethnicity"":""Non-Hispanic""}","","","","","","","","","","","","","","","","","","","","","","none","51","Non-Hispanic","Female","Asian"
