"success","timeout","failed_images","failed_audio","failed_video","trial_type","trial_index","plugin_version","time_elapsed","mturk_participant_id","mturk_assignment_id","mturk_project_id","trial_id","rt","stimulus","response","view_history","condition","itemB","causal_itemA","similarity_itemA","selected_choice","correct_response_attn","feedback","age","ethnicity","gender","race"
"true","false","[]","[]","[]","preload","0","2.0.0","9","90A4E6BDC7C741699EDE8665C0387989","f203fe40-13c0-40a8-87a4-a371504a3d68","6ff407c9-ec46-4f43-bd76-d89747851545","","","","","","","","","","","","","","","",""
"","","","","","html-button-response","1","2.0.0","46429","90A4E6BDC7C741699EDE8665C0387989","f203fe40-13c0-40a8-87a4-a371504a3d68","6ff407c9-ec46-4f43-bd76-d89747851545","consent","46417","<p><b>Consent Form</b></p> <div style=""text-align:left;background-color:lightblue; padding:2vw; max-width:80vw;""><p><b>Purpose:</b> The purpose of this study is to understand how people think about the physical and social world.</p><p><b>Procedures:</b> In this study, you will watch videos, read sentences, or see pictures, and answer simple questions about them. This study should take approximately 4 minutes</p><p><b>Participation:</b> Participation in this study is voluntary. If you decide to join now, you can change your mind later. </p><p><b>Payment:</b> You will be paid $15.00/hour for participating in this study. Given the estimated duration of 4 minutes, your payment will amount to $1.</p><p><b>Risks and benefits:</b> There are no risks associated with participating in this study. There are no direct benefits associated with participating in this study. </p><p><b>Use of data by study researchers:</b> The research team led by Shari Liu at JHU will have access to your answers. </p><p><b>Publication of results:</b> The results of the research may be presented at scientific meetings or published in scientific journals. Your individual responses may be published. We will never publish your name, the date that you participated, and any other information that could be used to identify you. </p><p><b>Researcher contact information:</b> This study is run by Dr. Shari Liu at JHU. If you have any questions or concerns about this study, or in the very unlikely event of a research-related injury, please contact sliu199@jhu.edu. </p><p><b>Research rights information:</b> If you have questions about your rights as a research participant or feel that you have not been treated fairly, please call the Homewood Institutional Review Board at Johns Hopkins University at (410) 516-6580. If you have any questions or issues completing the survey, please email Shari Liu at sliu199@jhu.edu. </p> </div><p> Do you consent to participate? </p>","0","","","","","","","","","","","",""
"","","","","","instructions","2","2.0.0","64854","90A4E6BDC7C741699EDE8665C0387989","f203fe40-13c0-40a8-87a4-a371504a3d68","6ff407c9-ec46-4f43-bd76-d89747851545","","18423","","","[{""page_index"":0,""viewing_time"":18423}]","","","","","","","","","","",""
"","","","","","html-button-response","3","2.0.0","76145","90A4E6BDC7C741699EDE8665C0387989","f203fe40-13c0-40a8-87a4-a371504a3d68","6ff407c9-ec46-4f43-bd76-d89747851545","","11288","<p style=""font-size: 25px;"">Suppose someone told you about a creature that could <strong>choose what to do</strong>. <br>Which of these two other abilities do you think the creature would also have?</p>","1","","similarity","choose what to do","feel scared","remember something","<p style=""font-size: 20px;"">The ability to <strong>remember something</strong></p>","","","","","",""
"","","","","","html-button-response","4","2.0.0","83933","90A4E6BDC7C741699EDE8665C0387989","f203fe40-13c0-40a8-87a4-a371504a3d68","6ff407c9-ec46-4f43-bd76-d89747851545","","7786","<p style=""font-size: 25px;"">Suppose someone told you about a creature that could <strong>feel scared</strong>. <br>Which of these two other abilities do you think the creature would also have?</p>","0","","similarity","feel scared","see something","become hungry","<p style=""font-size: 20px;"">The ability to <strong>see something</strong></p>","","","","","",""
"","","","","","html-button-response","5","2.0.0","87494","90A4E6BDC7C741699EDE8665C0387989","f203fe40-13c0-40a8-87a4-a371504a3d68","6ff407c9-ec46-4f43-bd76-d89747851545","","3560","<p style=""font-size: 25px;"">Suppose someone told you about a creature that could <strong>hear something</strong>. <br>Which of these two other abilities do you think the creature would also have?</p>","1","","similarity","hear something","take a walk","see something","<p style=""font-size: 20px;"">The ability to <strong>see something</strong></p>","","","","","",""
"","","","","","html-button-response","6","2.0.0","90902","90A4E6BDC7C741699EDE8665C0387989","f203fe40-13c0-40a8-87a4-a371504a3d68","6ff407c9-ec46-4f43-bd76-d89747851545","","3405","<p style=""font-size: 25px;"">Suppose someone told you about a creature that could <strong>take a walk</strong>. <br>Which of these two other abilities do you think the creature would also have?</p>","0","","similarity","take a walk","think about something","jump up and down","<p style=""font-size: 20px;"">The ability to <strong>jump up and down</strong></p>","","","","","",""
"","","","","","html-button-response","7","2.0.0","93733","90A4E6BDC7C741699EDE8665C0387989","f203fe40-13c0-40a8-87a4-a371504a3d68","6ff407c9-ec46-4f43-bd76-d89747851545","","2829","<p style=""font-size: 25px;"">Suppose someone told you about a creature that could <strong>get tired</strong>. <br>Which of these two other abilities do you think the creature would also have?</p>","1","","similarity","get tired","jump up and down","feel scared","<p style=""font-size: 20px;"">The ability to <strong>jump up and down</strong></p>","","","","","",""
"","","","","","html-button-response","8","2.0.0","98277","90A4E6BDC7C741699EDE8665C0387989","f203fe40-13c0-40a8-87a4-a371504a3d68","6ff407c9-ec46-4f43-bd76-d89747851545","","4543","<p style=""font-size: 25px;"">For this question, please select ""The ability to <strong>choose what to do</strong>""</p>","0","","attention_check","","","","The ability to choose what to do","choose what to do","","","","",""
"","","","","","html-button-response","9","2.0.0","126398","90A4E6BDC7C741699EDE8665C0387989","f203fe40-13c0-40a8-87a4-a371504a3d68","6ff407c9-ec46-4f43-bd76-d89747851545","","28118","<p style=""font-size: 25px;"">Suppose someone told you about a creature that could <strong>kick something</strong>. <br>Which of these two other abilities do you think the creature would also have?</p>","1","","similarity","kick something","think about something","jump up and down","<p style=""font-size: 20px;"">The ability to <strong>jump up and down</strong></p>","","","","","",""
"","","","","","html-button-response","10","2.0.0","129526","90A4E6BDC7C741699EDE8665C0387989","f203fe40-13c0-40a8-87a4-a371504a3d68","6ff407c9-ec46-4f43-bd76-d89747851545","","3126","<p style=""font-size: 25px;"">Suppose someone told you about a creature that could <strong>remember something</strong>. <br>Which of these two other abilities do you think the creature would also have?</p>","0","","similarity","remember something","take a walk","think about something","<p style=""font-size: 20px;"">The ability to <strong>think about something</strong></p>","","","","","",""
"","","","","","html-button-response","11","2.0.0","132903","90A4E6BDC7C741699EDE8665C0387989","f203fe40-13c0-40a8-87a4-a371504a3d68","6ff407c9-ec46-4f43-bd76-d89747851545","","3374","<p style=""font-size: 25px;"">Suppose someone told you about a creature that could <strong>become hungry</strong>. <br>Which of these two other abilities do you think the creature would also have?</p>","1","","similarity","become hungry","take a walk","experience pain","<p style=""font-size: 20px;"">The ability to <strong>experience pain</strong></p>","","","","","",""
"","","","","","html-button-response","12","2.0.0","135695","90A4E6BDC7C741699EDE8665C0387989","f203fe40-13c0-40a8-87a4-a371504a3d68","6ff407c9-ec46-4f43-bd76-d89747851545","","2791","<p style=""font-size: 25px;"">Suppose someone told you about a creature that could <strong>experience pain</strong>. <br>Which of these two other abilities do you think the creature would also have?</p>","0","","similarity","experience pain","kick something","feel scared","<p style=""font-size: 20px;"">The ability to <strong>feel scared</strong></p>","","","","","",""
"","","","","","html-button-response","13","2.0.0","138958","90A4E6BDC7C741699EDE8665C0387989","f203fe40-13c0-40a8-87a4-a371504a3d68","6ff407c9-ec46-4f43-bd76-d89747851545","","3261","<p style=""font-size: 25px;"">Suppose someone told you about a creature that could <strong>think about something</strong>. <br>Which of these two other abilities do you think the creature would also have?</p>","0","","similarity","think about something","take a walk","remember something","<p style=""font-size: 20px;"">The ability to <strong>remember something</strong></p>","","","","","",""
"","","","","","html-button-response","14","2.0.0","142765","90A4E6BDC7C741699EDE8665C0387989","f203fe40-13c0-40a8-87a4-a371504a3d68","6ff407c9-ec46-4f43-bd76-d89747851545","","3806","<p style=""font-size: 25px;"">Suppose someone told you about a creature that could <strong>reach for something</strong>. <br>Which of these two other abilities do you think the creature would also have?</p>","1","","similarity","reach for something","become hungry","kick something","<p style=""font-size: 20px;"">The ability to <strong>become hungry</strong></p>","","","","","",""
"","","","","","html-button-response","15","2.0.0","145703","90A4E6BDC7C741699EDE8665C0387989","f203fe40-13c0-40a8-87a4-a371504a3d68","6ff407c9-ec46-4f43-bd76-d89747851545","","2935","<p style=""font-size: 25px;"">Suppose someone told you about a creature that could <strong>jump up and down</strong>. <br>Which of these two other abilities do you think the creature would also have?</p>","0","","similarity","jump up and down","think about something","sit down","<p style=""font-size: 20px;"">The ability to <strong>sit down</strong></p>","","","","","",""
"","","","","","html-button-response","16","2.0.0","149006","90A4E6BDC7C741699EDE8665C0387989","f203fe40-13c0-40a8-87a4-a371504a3d68","6ff407c9-ec46-4f43-bd76-d89747851545","","3302","<p style=""font-size: 25px;"">Suppose someone told you about a creature that could <strong>see something</strong>. <br>Which of these two other abilities do you think the creature would also have?</p>","1","","similarity","see something","take a walk","hear something","<p style=""font-size: 20px;"">The ability to <strong>hear something</strong></p>","","","","","",""
"","","","","","html-button-response","17","2.0.0","151317","90A4E6BDC7C741699EDE8665C0387989","f203fe40-13c0-40a8-87a4-a371504a3d68","6ff407c9-ec46-4f43-bd76-d89747851545","","2310","<p style=""font-size: 25px;"">Suppose someone told you about a creature that could <strong>get sick</strong>. <br>Which of these two other abilities do you think the creature would also have?</p>","0","","similarity","get sick","see something","get tired","<p style=""font-size: 20px;"">The ability to <strong>get tired</strong></p>","","","","","",""
"","","","","","html-button-response","18","2.0.0","154718","90A4E6BDC7C741699EDE8665C0387989","f203fe40-13c0-40a8-87a4-a371504a3d68","6ff407c9-ec46-4f43-bd76-d89747851545","","3399","<p style=""font-size: 25px;"">Suppose someone told you about a creature that could <strong>sit down</strong>. <br>Which of these two other abilities do you think the creature would also have?</p>","1","","similarity","sit down","experience pain","jump up and down","<p style=""font-size: 20px;"">The ability to <strong>jump up and down</strong></p>","","","","","",""
"","","","","","instructions","19","2.0.0","159645","90A4E6BDC7C741699EDE8665C0387989","f203fe40-13c0-40a8-87a4-a371504a3d68","6ff407c9-ec46-4f43-bd76-d89747851545","","4927","","","[{""page_index"":0,""viewing_time"":4927}]","","","","","","","","","","",""
"","","","","","survey-html-form","20","2.0.0","192241","90A4E6BDC7C741699EDE8665C0387989","f203fe40-13c0-40a8-87a4-a371504a3d68","6ff407c9-ec46-4f43-bd76-d89747851545","demographics_survey","32591","","{""feedback"":""What options were most similar."",""age"":""36"",""gender"":""Male"",""other_gender"":"""",""race"":""White"",""other_race"":""""}","","","","","","","","What options were most similar.","36","","Male","White"
