"success","timeout","failed_images","failed_audio","failed_video","trial_type","trial_index","plugin_version","time_elapsed","mturk_participant_id","mturk_assignment_id","mturk_project_id","trial_id","rt","stimulus","response","view_history","0","1","2","3","4","5","6","7","8","9","10","11","12","13","14","question_order","15","init_locations","moves","final_locations","feedback","age","ethnicity","gender","race"
"true","false","[]","[]","[]","preload","0","2.0.0","154","67398118ACF140429F4D0D8BBA7EFF7B","bdbaec55-661c-42d0-a346-3d0d2b06191c","c9908d3c-c6c0-4ff0-8197-ad6b853728e6","","","","","","","","","","","","","","","","","","","","","","","","","","","","","",""
"","","","","","html-button-response","1","2.0.0","12239","67398118ACF140429F4D0D8BBA7EFF7B","bdbaec55-661c-42d0-a346-3d0d2b06191c","c9908d3c-c6c0-4ff0-8197-ad6b853728e6","consent","12083","<p><b>Consent Form</b></p> <div style=""text-align:left;background-color:lightblue; padding:2vw; max-width:80vw;""><p><b>Purpose:</b> The purpose of this study is to understand how people think about the physical and social world.</p><p><b>Procedures:</b> In this study, you will watch videos, read sentences, or see pictures, and answer simple questions about them. This study should take approximately 30 minutes</p><p><b>Participation:</b> Participation in this study is voluntary. If you decide to join now, you can change your mind later. </p><p><b>Payment:</b> You will be paid $15.00/hour for participating in this study. Given the estimated duration of 30 minutes, your payment will amount to $7.50.</p><p><b>Risks and benefits:</b> There are no risks associated with participating in this study. There are no direct benefits associated with participating in this study. </p><p><b>Use of data by study researchers:</b> The research team led by Shari Liu at JHU will have access to your answers. </p><p><b>Publication of results:</b> The results of the research may be presented at scientific meetings or published in scientific journals. Your individual responses may be published. We will never publish your name, the date that you participated, and any other information that could be used to identify you. </p><p><b>Researcher contact information:</b> This study is run by Dr. Shari Liu at JHU. If you have any questions or concerns about this study, or in the very unlikely event of a research-related injury, please contact sliu199@jhu.edu. </p><p><b>Research rights information:</b> If you have questions about your rights as a research participant or feel that you have not been treated fairly, please call the Homewood Institutional Review Board at Johns Hopkins University at (410) 516-6580. If you have any questions or issues completing the survey, please email Shari Liu at sliu199@jhu.edu. </p> </div><p> Do you consent to participate? </p>","0","","","","","","","","","","","","","","","","","","","","","","","","","",""
"","","","","","instructions","2","2.0.0","18262","67398118ACF140429F4D0D8BBA7EFF7B","bdbaec55-661c-42d0-a346-3d0d2b06191c","c9908d3c-c6c0-4ff0-8197-ad6b853728e6","","6020","","","[{""page_index"":0,""viewing_time"":6020}]","","","","","","","","","","","","","","","","","","","","","","","","",""
"","","","","","instructions","3","2.0.0","70410","67398118ACF140429F4D0D8BBA7EFF7B","bdbaec55-661c-42d0-a346-3d0d2b06191c","c9908d3c-c6c0-4ff0-8197-ad6b853728e6","","52143","","","[{""page_index"":0,""viewing_time"":52143}]","","","","","","","","","","","","","","","","","","","","","","","","",""
"","","","","","survey-slider","4","null","210188","67398118ACF140429F4D0D8BBA7EFF7B","bdbaec55-661c-42d0-a346-3d0d2b06191c","c9908d3c-c6c0-4ff0-8197-ad6b853728e6","","139766","","{""Q0"":""94"",""Q1"":""83"",""Q2"":""24"",""Q3"":""4"",""Q4"":""99"",""Q5"":""97"",""Q6"":""88"",""Q7"":""99"",""Q8"":""95"",""Q9"":""100"",""Q10"":""94"",""Q11"":""16"",""Q12"":""93"",""Q13"":""21"",""Q14"":""90""}","","{""itemA"":""hear something"",""itemB"":""jump up and down"",""categoryA"":""cognitive"",""categoryB"":""physical"",""attention_check"":false,""correct_response"":null}","{""itemA"":""hear something"",""itemB"":""reach for something"",""categoryA"":""cognitive"",""categoryB"":""physical"",""attention_check"":false,""correct_response"":null}","{""itemA"":""hear something"",""itemB"":""sit down"",""categoryA"":""cognitive"",""categoryB"":""physical"",""attention_check"":false,""correct_response"":null}","{""itemA"":""hear something"",""itemB"":""get sick"",""categoryA"":""cognitive"",""categoryB"":""physiological"",""attention_check"":false,""correct_response"":null}","{""itemA"":""hear something"",""itemB"":""think about something"",""categoryA"":""cognitive"",""categoryB"":""cognitive"",""attention_check"":false,""correct_response"":null}","{""itemA"":""hear something"",""itemB"":""choose what to do"",""categoryA"":""cognitive"",""categoryB"":""cognitive"",""attention_check"":false,""correct_response"":null}","{""itemA"":""hear something"",""itemB"":""kick something"",""categoryA"":""cognitive"",""categoryB"":""physical"",""attention_check"":false,""correct_response"":null}","{""itemA"":""hear something"",""itemB"":""feel scared"",""categoryA"":""cognitive"",""categoryB"":""physiological"",""attention_check"":false,""correct_response"":null}","{""itemA"":""hear something"",""itemB"":""become hungry"",""categoryA"":""cognitive"",""categoryB"":""physiological"",""attention_check"":false,""correct_response"":null}","{""itemA"":""hear something"",""itemB"":""hear something"",""categoryA"":""cognitive"",""categoryB"":""cognitive"",""attention_check"":false,""correct_response"":null}","{""itemA"":""hear something"",""itemB"":""get tired"",""categoryA"":""cognitive"",""categoryB"":""physiological"",""attention_check"":false,""correct_response"":null}","{""itemA"":""hear something"",""itemB"":""experience pain"",""categoryA"":""cognitive"",""categoryB"":""physiological"",""attention_check"":false,""correct_response"":null}","{""itemA"":""hear something"",""itemB"":""remember something"",""categoryA"":""cognitive"",""categoryB"":""cognitive"",""attention_check"":false,""correct_response"":null}","{""itemA"":""hear something"",""itemB"":""take a walk"",""categoryA"":""cognitive"",""categoryB"":""physical"",""attention_check"":false,""correct_response"":null}","{""itemA"":""hear something"",""itemB"":""see something"",""categoryA"":""cognitive"",""categoryB"":""cognitive"",""attention_check"":false,""correct_response"":null}","[0,1,2,3,4,5,6,7,8,9,10,11,12,13,14]","","","","","","","","",""
"","","","","","survey-slider","5","null","307128","67398118ACF140429F4D0D8BBA7EFF7B","bdbaec55-661c-42d0-a346-3d0d2b06191c","c9908d3c-c6c0-4ff0-8197-ad6b853728e6","","96932","","{""Q0"":""50"",""Q1"":""4"",""Q2"":""95"",""Q3"":""74"",""Q4"":""8"",""Q5"":""97"",""Q6"":""2"",""Q7"":""100"",""Q8"":""92"",""Q9"":""84"",""Q10"":""24"",""Q11"":""70"",""Q12"":""49"",""Q13"":""83"",""Q14"":""18""}","","{""itemA"":""feel scared"",""itemB"":""experience pain"",""categoryA"":""physiological"",""categoryB"":""physiological"",""attention_check"":false,""correct_response"":null}","{""itemA"":""feel scared"",""itemB"":""take a walk"",""categoryA"":""physiological"",""categoryB"":""physical"",""attention_check"":false,""correct_response"":null}","{""itemA"":""feel scared"",""itemB"":""hear something"",""categoryA"":""physiological"",""categoryB"":""cognitive"",""attention_check"":false,""correct_response"":null}","{""itemA"":""feel scared"",""itemB"":""sit down"",""categoryA"":""physiological"",""categoryB"":""physical"",""attention_check"":false,""correct_response"":null}","{""itemA"":""feel scared"",""itemB"":""get tired"",""categoryA"":""physiological"",""categoryB"":""physiological"",""attention_check"":false,""correct_response"":null}","{""itemA"":""feel scared"",""itemB"":""reach for something"",""categoryA"":""physiological"",""categoryB"":""physical"",""attention_check"":false,""correct_response"":null}","{""itemA"":""feel scared"",""itemB"":""become hungry"",""categoryA"":""physiological"",""categoryB"":""physiological"",""attention_check"":false,""correct_response"":null}","{""itemA"":""feel scared"",""itemB"":""feel scared"",""categoryA"":""physiological"",""categoryB"":""physiological"",""attention_check"":false,""correct_response"":null}","{""itemA"":""feel scared"",""itemB"":""choose what to do"",""categoryA"":""physiological"",""categoryB"":""cognitive"",""attention_check"":false,""correct_response"":null}","{""itemA"":""feel scared"",""itemB"":""think about something"",""categoryA"":""physiological"",""categoryB"":""cognitive"",""attention_check"":false,""correct_response"":null}","{""itemA"":""feel scared"",""itemB"":""jump up and down"",""categoryA"":""physiological"",""categoryB"":""physical"",""attention_check"":false,""correct_response"":null}","{""itemA"":""feel scared"",""itemB"":""remember something"",""categoryA"":""physiological"",""categoryB"":""cognitive"",""attention_check"":false,""correct_response"":null}","{""itemA"":""feel scared"",""itemB"":""get sick"",""categoryA"":""physiological"",""categoryB"":""physiological"",""attention_check"":false,""correct_response"":null}","{""itemA"":""feel scared"",""itemB"":""see something"",""categoryA"":""physiological"",""categoryB"":""cognitive"",""attention_check"":false,""correct_response"":null}","{""itemA"":""feel scared"",""itemB"":""kick something"",""categoryA"":""physiological"",""categoryB"":""physical"",""attention_check"":false,""correct_response"":null}","[0,1,2,3,4,5,6,7,8,9,10,11,12,13,14]","","","","","","","","",""
"","","","","","survey-slider","6","null","393851","67398118ACF140429F4D0D8BBA7EFF7B","bdbaec55-661c-42d0-a346-3d0d2b06191c","c9908d3c-c6c0-4ff0-8197-ad6b853728e6","","86715","","{""Q0"":""100"",""Q1"":""68"",""Q2"":""79"",""Q3"":""67"",""Q4"":""95"",""Q5"":""99"",""Q6"":""99"",""Q7"":""42"",""Q8"":""86"",""Q9"":""95"",""Q10"":""98"",""Q11"":""85"",""Q12"":""39"",""Q13"":""25"",""Q14"":""49""}","","{""itemA"":""think about something"",""itemB"":""think about something"",""categoryA"":""cognitive"",""categoryB"":""cognitive"",""attention_check"":false,""correct_response"":null}","{""itemA"":""think about something"",""itemB"":""jump up and down"",""categoryA"":""cognitive"",""categoryB"":""physical"",""attention_check"":false,""correct_response"":null}","{""itemA"":""think about something"",""itemB"":""take a walk"",""categoryA"":""cognitive"",""categoryB"":""physical"",""attention_check"":false,""correct_response"":null}","{""itemA"":""think about something"",""itemB"":""sit down"",""categoryA"":""cognitive"",""categoryB"":""physical"",""attention_check"":false,""correct_response"":null}","{""itemA"":""think about something"",""itemB"":""remember something"",""categoryA"":""cognitive"",""categoryB"":""cognitive"",""attention_check"":false,""correct_response"":null}","{""itemA"":""think about something"",""itemB"":""become hungry"",""categoryA"":""cognitive"",""categoryB"":""physiological"",""attention_check"":false,""correct_response"":null}","{""itemA"":""think about something"",""itemB"":""feel scared"",""categoryA"":""cognitive"",""categoryB"":""physiological"",""attention_check"":false,""correct_response"":null}","{""itemA"":""think about something"",""itemB"":""get tired"",""categoryA"":""cognitive"",""categoryB"":""physiological"",""attention_check"":false,""correct_response"":null}","{""itemA"":""think about something"",""itemB"":""hear something"",""categoryA"":""cognitive"",""categoryB"":""cognitive"",""attention_check"":false,""correct_response"":null}","{""itemA"":""think about something"",""itemB"":""reach for something"",""categoryA"":""cognitive"",""categoryB"":""physical"",""attention_check"":false,""correct_response"":null}","{""itemA"":""think about something"",""itemB"":""choose what to do"",""categoryA"":""cognitive"",""categoryB"":""cognitive"",""attention_check"":false,""correct_response"":null}","{""itemA"":""think about something"",""itemB"":""see something"",""categoryA"":""cognitive"",""categoryB"":""cognitive"",""attention_check"":false,""correct_response"":null}","{""itemA"":""think about something"",""itemB"":""kick something"",""categoryA"":""cognitive"",""categoryB"":""physical"",""attention_check"":false,""correct_response"":null}","{""itemA"":""think about something"",""itemB"":""experience pain"",""categoryA"":""cognitive"",""categoryB"":""physiological"",""attention_check"":false,""correct_response"":null}","{""itemA"":""think about something"",""itemB"":""get sick"",""categoryA"":""cognitive"",""categoryB"":""physiological"",""attention_check"":false,""correct_response"":null}","[0,1,2,3,4,5,6,7,8,9,10,11,12,13,14]","","","","","","","","",""
"","","","","","survey-slider","7","null","483831","67398118ACF140429F4D0D8BBA7EFF7B","bdbaec55-661c-42d0-a346-3d0d2b06191c","c9908d3c-c6c0-4ff0-8197-ad6b853728e6","","89971","","{""Q0"":""21"",""Q1"":""68"",""Q2"":""50"",""Q3"":""2"",""Q4"":""73"",""Q5"":""5"",""Q6"":""2"",""Q7"":""69"",""Q8"":""52"",""Q9"":""100"",""Q10"":""91"",""Q11"":""82"",""Q12"":""94"",""Q13"":""73"",""Q14"":""92"",""Q15"":""71""}","","{""itemA"":""jump up and down"",""itemB"":""choose what to do"",""categoryA"":""physical"",""categoryB"":""cognitive"",""attention_check"":false,""correct_response"":null}","{""itemA"":""jump up and down"",""itemB"":""remember something"",""categoryA"":""physical"",""categoryB"":""cognitive"",""attention_check"":false,""correct_response"":null}","{""itemA"":null,""itemB"":null,""categoryA"":null,""categoryB"":null,""attention_check"":true,""correct_response"":null}","{""itemA"":""jump up and down"",""itemB"":""sit down"",""categoryA"":""physical"",""categoryB"":""physical"",""attention_check"":false,""correct_response"":null}","{""itemA"":""jump up and down"",""itemB"":""experience pain"",""categoryA"":""physical"",""categoryB"":""physiological"",""attention_check"":false,""correct_response"":null}","{""itemA"":""jump up and down"",""itemB"":""take a walk"",""categoryA"":""physical"",""categoryB"":""physical"",""attention_check"":false,""correct_response"":null}","{""itemA"":""jump up and down"",""itemB"":""kick something"",""categoryA"":""physical"",""categoryB"":""physical"",""attention_check"":false,""correct_response"":null}","{""itemA"":""jump up and down"",""itemB"":""feel scared"",""categoryA"":""physical"",""categoryB"":""physiological"",""attention_check"":false,""correct_response"":null}","{""itemA"":""jump up and down"",""itemB"":""get sick"",""categoryA"":""physical"",""categoryB"":""physiological"",""attention_check"":false,""correct_response"":null}","{""itemA"":""jump up and down"",""itemB"":""jump up and down"",""categoryA"":""physical"",""categoryB"":""physical"",""attention_check"":false,""correct_response"":null}","{""itemA"":""jump up and down"",""itemB"":""reach for something"",""categoryA"":""physical"",""categoryB"":""physical"",""attention_check"":false,""correct_response"":null}","{""itemA"":""jump up and down"",""itemB"":""see something"",""categoryA"":""physical"",""categoryB"":""cognitive"",""attention_check"":false,""correct_response"":null}","{""itemA"":""jump up and down"",""itemB"":""get tired"",""categoryA"":""physical"",""categoryB"":""physiological"",""attention_check"":false,""correct_response"":null}","{""itemA"":""jump up and down"",""itemB"":""become hungry"",""categoryA"":""physical"",""categoryB"":""physiological"",""attention_check"":false,""correct_response"":null}","{""itemA"":""jump up and down"",""itemB"":""hear something"",""categoryA"":""physical"",""categoryB"":""cognitive"",""attention_check"":false,""correct_response"":null}","[0,1,2,3,4,5,6,7,8,9,10,11,12,13,14,15]","{""itemA"":""jump up and down"",""itemB"":""think about something"",""categoryA"":""physical"",""categoryB"":""cognitive"",""attention_check"":false,""correct_response"":null}","","","","","","","",""
"","","","","","survey-slider","8","null","577595","67398118ACF140429F4D0D8BBA7EFF7B","bdbaec55-661c-42d0-a346-3d0d2b06191c","c9908d3c-c6c0-4ff0-8197-ad6b853728e6","","93757","","{""Q0"":""100"",""Q1"":""90"",""Q2"":""73"",""Q3"":""60"",""Q4"":""8"",""Q5"":""37"",""Q6"":""68"",""Q7"":""36"",""Q8"":""67"",""Q9"":""76"",""Q10"":""84"",""Q11"":""62"",""Q12"":""2"",""Q13"":""2"",""Q14"":""15""}","","{""itemA"":""sit down"",""itemB"":""sit down"",""categoryA"":""physical"",""categoryB"":""physical"",""attention_check"":false,""correct_response"":null}","{""itemA"":""sit down"",""itemB"":""experience pain"",""categoryA"":""physical"",""categoryB"":""physiological"",""attention_check"":false,""correct_response"":null}","{""itemA"":""sit down"",""itemB"":""hear something"",""categoryA"":""physical"",""categoryB"":""cognitive"",""attention_check"":false,""correct_response"":null}","{""itemA"":""sit down"",""itemB"":""become hungry"",""categoryA"":""physical"",""categoryB"":""physiological"",""attention_check"":false,""correct_response"":null}","{""itemA"":""sit down"",""itemB"":""get sick"",""categoryA"":""physical"",""categoryB"":""physiological"",""attention_check"":false,""correct_response"":null}","{""itemA"":""sit down"",""itemB"":""think about something"",""categoryA"":""physical"",""categoryB"":""cognitive"",""attention_check"":false,""correct_response"":null}","{""itemA"":""sit down"",""itemB"":""see something"",""categoryA"":""physical"",""categoryB"":""cognitive"",""attention_check"":false,""correct_response"":null}","{""itemA"":""sit down"",""itemB"":""feel scared"",""categoryA"":""physical"",""categoryB"":""physiological"",""attention_check"":false,""correct_response"":null}","{""itemA"":""sit down"",""itemB"":""choose what to do"",""categoryA"":""physical"",""categoryB"":""cognitive"",""attention_check"":false,""correct_response"":null}","{""itemA"":""sit down"",""itemB"":""reach for something"",""categoryA"":""physical"",""categoryB"":""physical"",""attention_check"":false,""correct_response"":null}","{""itemA"":""sit down"",""itemB"":""get tired"",""categoryA"":""physical"",""categoryB"":""physiological"",""attention_check"":false,""correct_response"":null}","{""itemA"":""sit down"",""itemB"":""remember something"",""categoryA"":""physical"",""categoryB"":""cognitive"",""attention_check"":false,""correct_response"":null}","{""itemA"":""sit down"",""itemB"":""take a walk"",""categoryA"":""physical"",""categoryB"":""physical"",""attention_check"":false,""correct_response"":null}","{""itemA"":""sit down"",""itemB"":""jump up and down"",""categoryA"":""physical"",""categoryB"":""physical"",""attention_check"":false,""correct_response"":null}","{""itemA"":""sit down"",""itemB"":""kick something"",""categoryA"":""physical"",""categoryB"":""physical"",""attention_check"":false,""correct_response"":null}","[0,1,2,3,4,5,6,7,8,9,10,11,12,13,14]","","","","","","","","",""
"","","","","","survey-slider","9","null","656904","67398118ACF140429F4D0D8BBA7EFF7B","bdbaec55-661c-42d0-a346-3d0d2b06191c","c9908d3c-c6c0-4ff0-8197-ad6b853728e6","","79303","","{""Q0"":""96"",""Q1"":""50"",""Q2"":""92"",""Q3"":""97"",""Q4"":""92"",""Q5"":""98"",""Q6"":""97"",""Q7"":""79"",""Q8"":""59"",""Q9"":""100"",""Q10"":""99"",""Q11"":""98"",""Q12"":""97"",""Q13"":""99"",""Q14"":""89""}","","{""itemA"":""choose what to do"",""itemB"":""kick something"",""categoryA"":""cognitive"",""categoryB"":""physical"",""attention_check"":false,""correct_response"":null}","{""itemA"":""choose what to do"",""itemB"":""get tired"",""categoryA"":""cognitive"",""categoryB"":""physiological"",""attention_check"":false,""correct_response"":null}","{""itemA"":""choose what to do"",""itemB"":""see something"",""categoryA"":""cognitive"",""categoryB"":""cognitive"",""attention_check"":false,""correct_response"":null}","{""itemA"":""choose what to do"",""itemB"":""hear something"",""categoryA"":""cognitive"",""categoryB"":""cognitive"",""attention_check"":false,""correct_response"":null}","{""itemA"":""choose what to do"",""itemB"":""feel scared"",""categoryA"":""cognitive"",""categoryB"":""physiological"",""attention_check"":false,""correct_response"":null}","{""itemA"":""choose what to do"",""itemB"":""experience pain"",""categoryA"":""cognitive"",""categoryB"":""physiological"",""attention_check"":false,""correct_response"":null}","{""itemA"":""choose what to do"",""itemB"":""become hungry"",""categoryA"":""cognitive"",""categoryB"":""physiological"",""attention_check"":false,""correct_response"":null}","{""itemA"":""choose what to do"",""itemB"":""think about something"",""categoryA"":""cognitive"",""categoryB"":""cognitive"",""attention_check"":false,""correct_response"":null}","{""itemA"":""choose what to do"",""itemB"":""remember something"",""categoryA"":""cognitive"",""categoryB"":""cognitive"",""attention_check"":false,""correct_response"":null}","{""itemA"":""choose what to do"",""itemB"":""choose what to do"",""categoryA"":""cognitive"",""categoryB"":""cognitive"",""attention_check"":false,""correct_response"":null}","{""itemA"":""choose what to do"",""itemB"":""reach for something"",""categoryA"":""cognitive"",""categoryB"":""physical"",""attention_check"":false,""correct_response"":null}","{""itemA"":""choose what to do"",""itemB"":""take a walk"",""categoryA"":""cognitive"",""categoryB"":""physical"",""attention_check"":false,""correct_response"":null}","{""itemA"":""choose what to do"",""itemB"":""jump up and down"",""categoryA"":""cognitive"",""categoryB"":""physical"",""attention_check"":false,""correct_response"":null}","{""itemA"":""choose what to do"",""itemB"":""sit down"",""categoryA"":""cognitive"",""categoryB"":""physical"",""attention_check"":false,""correct_response"":null}","{""itemA"":""choose what to do"",""itemB"":""get sick"",""categoryA"":""cognitive"",""categoryB"":""physiological"",""attention_check"":false,""correct_response"":null}","[0,1,2,3,4,5,6,7,8,9,10,11,12,13,14]","","","","","","","","",""
"","","","","","survey-slider","10","null","749353","67398118ACF140429F4D0D8BBA7EFF7B","bdbaec55-661c-42d0-a346-3d0d2b06191c","c9908d3c-c6c0-4ff0-8197-ad6b853728e6","","92441","","{""Q0"":""61"",""Q1"":""42"",""Q2"":""93"",""Q3"":""80"",""Q4"":""10"",""Q5"":""95"",""Q6"":""65"",""Q7"":""100"",""Q8"":""49"",""Q9"":""64"",""Q10"":""80"",""Q11"":""5"",""Q12"":""74"",""Q13"":""76"",""Q14"":""39""}","","{""itemA"":""experience pain"",""itemB"":""see something"",""categoryA"":""physiological"",""categoryB"":""cognitive"",""attention_check"":false,""correct_response"":null}","{""itemA"":""experience pain"",""itemB"":""hear something"",""categoryA"":""physiological"",""categoryB"":""cognitive"",""attention_check"":false,""correct_response"":null}","{""itemA"":""experience pain"",""itemB"":""reach for something"",""categoryA"":""physiological"",""categoryB"":""physical"",""attention_check"":false,""correct_response"":null}","{""itemA"":""experience pain"",""itemB"":""get sick"",""categoryA"":""physiological"",""categoryB"":""physiological"",""attention_check"":false,""correct_response"":null}","{""itemA"":""experience pain"",""itemB"":""become hungry"",""categoryA"":""physiological"",""categoryB"":""physiological"",""attention_check"":false,""correct_response"":null}","{""itemA"":""experience pain"",""itemB"":""choose what to do"",""categoryA"":""physiological"",""categoryB"":""cognitive"",""attention_check"":false,""correct_response"":null}","{""itemA"":""experience pain"",""itemB"":""think about something"",""categoryA"":""physiological"",""categoryB"":""cognitive"",""attention_check"":false,""correct_response"":null}","{""itemA"":""experience pain"",""itemB"":""experience pain"",""categoryA"":""physiological"",""categoryB"":""physiological"",""attention_check"":false,""correct_response"":null}","{""itemA"":""experience pain"",""itemB"":""remember something"",""categoryA"":""physiological"",""categoryB"":""cognitive"",""attention_check"":false,""correct_response"":null}","{""itemA"":""experience pain"",""itemB"":""kick something"",""categoryA"":""physiological"",""categoryB"":""physical"",""attention_check"":false,""correct_response"":null}","{""itemA"":""experience pain"",""itemB"":""feel scared"",""categoryA"":""physiological"",""categoryB"":""physiological"",""attention_check"":false,""correct_response"":null}","{""itemA"":""experience pain"",""itemB"":""take a walk"",""categoryA"":""physiological"",""categoryB"":""physical"",""attention_check"":false,""correct_response"":null}","{""itemA"":""experience pain"",""itemB"":""sit down"",""categoryA"":""physiological"",""categoryB"":""physical"",""attention_check"":false,""correct_response"":null}","{""itemA"":""experience pain"",""itemB"":""jump up and down"",""categoryA"":""physiological"",""categoryB"":""physical"",""attention_check"":false,""correct_response"":null}","{""itemA"":""experience pain"",""itemB"":""get tired"",""categoryA"":""physiological"",""categoryB"":""physiological"",""attention_check"":false,""correct_response"":null}","[0,1,2,3,4,5,6,7,8,9,10,11,12,13,14]","","","","","","","","",""
"","","","","","survey-slider","11","null","847023","67398118ACF140429F4D0D8BBA7EFF7B","bdbaec55-661c-42d0-a346-3d0d2b06191c","c9908d3c-c6c0-4ff0-8197-ad6b853728e6","","97663","","{""Q0"":""91"",""Q1"":""17"",""Q2"":""85"",""Q3"":""32"",""Q4"":""76"",""Q5"":""63"",""Q6"":""92"",""Q7"":""28"",""Q8"":""34"",""Q9"":""35"",""Q10"":""58"",""Q11"":""84"",""Q12"":""17"",""Q13"":""35"",""Q14"":""100"",""Q15"":""91""}","","{""itemA"":""get sick"",""itemB"":""get tired"",""categoryA"":""physiological"",""categoryB"":""physiological"",""attention_check"":false,""correct_response"":null}","{""itemA"":""get sick"",""itemB"":""kick something"",""categoryA"":""physiological"",""categoryB"":""physical"",""attention_check"":false,""correct_response"":null}","{""itemA"":""get sick"",""itemB"":""sit down"",""categoryA"":""physiological"",""categoryB"":""physical"",""attention_check"":false,""correct_response"":null}","{""itemA"":""get sick"",""itemB"":""take a walk"",""categoryA"":""physiological"",""categoryB"":""physical"",""attention_check"":false,""correct_response"":null}","{""itemA"":null,""itemB"":null,""categoryA"":null,""categoryB"":null,""attention_check"":true,""correct_response"":75}","{""itemA"":""get sick"",""itemB"":""think about something"",""categoryA"":""physiological"",""categoryB"":""cognitive"",""attention_check"":false,""correct_response"":null}","{""itemA"":""get sick"",""itemB"":""reach for something"",""categoryA"":""physiological"",""categoryB"":""physical"",""attention_check"":false,""correct_response"":null}","{""itemA"":""get sick"",""itemB"":""jump up and down"",""categoryA"":""physiological"",""categoryB"":""physical"",""attention_check"":false,""correct_response"":null}","{""itemA"":""get sick"",""itemB"":""see something"",""categoryA"":""physiological"",""categoryB"":""cognitive"",""attention_check"":false,""correct_response"":null}","{""itemA"":""get sick"",""itemB"":""hear something"",""categoryA"":""physiological"",""categoryB"":""cognitive"",""attention_check"":false,""correct_response"":null}","{""itemA"":""get sick"",""itemB"":""feel scared"",""categoryA"":""physiological"",""categoryB"":""physiological"",""attention_check"":false,""correct_response"":null}","{""itemA"":""get sick"",""itemB"":""choose what to do"",""categoryA"":""physiological"",""categoryB"":""cognitive"",""attention_check"":false,""correct_response"":null}","{""itemA"":""get sick"",""itemB"":""become hungry"",""categoryA"":""physiological"",""categoryB"":""physiological"",""attention_check"":false,""correct_response"":null}","{""itemA"":""get sick"",""itemB"":""remember something"",""categoryA"":""physiological"",""categoryB"":""cognitive"",""attention_check"":false,""correct_response"":null}","{""itemA"":""get sick"",""itemB"":""get sick"",""categoryA"":""physiological"",""categoryB"":""physiological"",""attention_check"":false,""correct_response"":null}","[0,1,2,3,4,5,6,7,8,9,10,11,12,13,14,15]","{""itemA"":""get sick"",""itemB"":""experience pain"",""categoryA"":""physiological"",""categoryB"":""physiological"",""attention_check"":false,""correct_response"":null}","","","","","","","",""
"","","","","","survey-slider","12","null","923083","67398118ACF140429F4D0D8BBA7EFF7B","bdbaec55-661c-42d0-a346-3d0d2b06191c","c9908d3c-c6c0-4ff0-8197-ad6b853728e6","","76054","","{""Q0"":""8"",""Q1"":""78"",""Q2"":""65"",""Q3"":""29"",""Q4"":""60"",""Q5"":""16"",""Q6"":""21"",""Q7"":""13"",""Q8"":""10"",""Q9"":""100"",""Q10"":""19"",""Q11"":""33"",""Q12"":""61"",""Q13"":""68"",""Q14"":""50""}","","{""itemA"":""kick something"",""itemB"":""get sick"",""categoryA"":""physical"",""categoryB"":""physiological"",""attention_check"":false,""correct_response"":null}","{""itemA"":""kick something"",""itemB"":""get tired"",""categoryA"":""physical"",""categoryB"":""physiological"",""attention_check"":false,""correct_response"":null}","{""itemA"":""kick something"",""itemB"":""become hungry"",""categoryA"":""physical"",""categoryB"":""physiological"",""attention_check"":false,""correct_response"":null}","{""itemA"":""kick something"",""itemB"":""think about something"",""categoryA"":""physical"",""categoryB"":""cognitive"",""attention_check"":false,""correct_response"":null}","{""itemA"":""kick something"",""itemB"":""experience pain"",""categoryA"":""physical"",""categoryB"":""physiological"",""attention_check"":false,""correct_response"":null}","{""itemA"":""kick something"",""itemB"":""feel scared"",""categoryA"":""physical"",""categoryB"":""physiological"",""attention_check"":false,""correct_response"":null}","{""itemA"":""kick something"",""itemB"":""take a walk"",""categoryA"":""physical"",""categoryB"":""physical"",""attention_check"":false,""correct_response"":null}","{""itemA"":""kick something"",""itemB"":""reach for something"",""categoryA"":""physical"",""categoryB"":""physical"",""attention_check"":false,""correct_response"":null}","{""itemA"":""kick something"",""itemB"":""jump up and down"",""categoryA"":""physical"",""categoryB"":""physical"",""attention_check"":false,""correct_response"":null}","{""itemA"":""kick something"",""itemB"":""kick something"",""categoryA"":""physical"",""categoryB"":""physical"",""attention_check"":false,""correct_response"":null}","{""itemA"":""kick something"",""itemB"":""sit down"",""categoryA"":""physical"",""categoryB"":""physical"",""attention_check"":false,""correct_response"":null}","{""itemA"":""kick something"",""itemB"":""see something"",""categoryA"":""physical"",""categoryB"":""cognitive"",""attention_check"":false,""correct_response"":null}","{""itemA"":""kick something"",""itemB"":""hear something"",""categoryA"":""physical"",""categoryB"":""cognitive"",""attention_check"":false,""correct_response"":null}","{""itemA"":""kick something"",""itemB"":""choose what to do"",""categoryA"":""physical"",""categoryB"":""cognitive"",""attention_check"":false,""correct_response"":null}","{""itemA"":""kick something"",""itemB"":""remember something"",""categoryA"":""physical"",""categoryB"":""cognitive"",""attention_check"":false,""correct_response"":null}","[0,1,2,3,4,5,6,7,8,9,10,11,12,13,14]","","","","","","","","",""
"","","","","","survey-slider","13","null","1010132","67398118ACF140429F4D0D8BBA7EFF7B","bdbaec55-661c-42d0-a346-3d0d2b06191c","c9908d3c-c6c0-4ff0-8197-ad6b853728e6","","87044","","{""Q0"":""63"",""Q1"":""0"",""Q2"":""16"",""Q3"":""93"",""Q4"":""98"",""Q5"":""10"",""Q6"":""4"",""Q7"":""82"",""Q8"":""11"",""Q9"":""14"",""Q10"":""27"",""Q11"":""11"",""Q12"":""88"",""Q13"":""85"",""Q14"":""5"",""Q15"":""100""}","","{""itemA"":""become hungry"",""itemB"":""get tired"",""categoryA"":""physiological"",""categoryB"":""physiological"",""attention_check"":false,""correct_response"":null}","{""itemA"":null,""itemB"":null,""categoryA"":null,""categoryB"":null,""attention_check"":true,""correct_response"":null}","{""itemA"":""become hungry"",""itemB"":""hear something"",""categoryA"":""physiological"",""categoryB"":""cognitive"",""attention_check"":false,""correct_response"":null}","{""itemA"":""become hungry"",""itemB"":""reach for something"",""categoryA"":""physiological"",""categoryB"":""physical"",""attention_check"":false,""correct_response"":null}","{""itemA"":""become hungry"",""itemB"":""choose what to do"",""categoryA"":""physiological"",""categoryB"":""cognitive"",""attention_check"":false,""correct_response"":null}","{""itemA"":""become hungry"",""itemB"":""jump up and down"",""categoryA"":""physiological"",""categoryB"":""physical"",""attention_check"":false,""correct_response"":null}","{""itemA"":""become hungry"",""itemB"":""kick something"",""categoryA"":""physiological"",""categoryB"":""physical"",""attention_check"":false,""correct_response"":null}","{""itemA"":""become hungry"",""itemB"":""sit down"",""categoryA"":""physiological"",""categoryB"":""physical"",""attention_check"":false,""correct_response"":null}","{""itemA"":""become hungry"",""itemB"":""experience pain"",""categoryA"":""physiological"",""categoryB"":""physiological"",""attention_check"":false,""correct_response"":null}","{""itemA"":""become hungry"",""itemB"":""see something"",""categoryA"":""physiological"",""categoryB"":""cognitive"",""attention_check"":false,""correct_response"":null}","{""itemA"":""become hungry"",""itemB"":""remember something"",""categoryA"":""physiological"",""categoryB"":""cognitive"",""attention_check"":false,""correct_response"":null}","{""itemA"":""become hungry"",""itemB"":""get sick"",""categoryA"":""physiological"",""categoryB"":""physiological"",""attention_check"":false,""correct_response"":null}","{""itemA"":""become hungry"",""itemB"":""take a walk"",""categoryA"":""physiological"",""categoryB"":""physical"",""attention_check"":false,""correct_response"":null}","{""itemA"":""become hungry"",""itemB"":""think about something"",""categoryA"":""physiological"",""categoryB"":""cognitive"",""attention_check"":false,""correct_response"":null}","{""itemA"":""become hungry"",""itemB"":""feel scared"",""categoryA"":""physiological"",""categoryB"":""physiological"",""attention_check"":false,""correct_response"":null}","[0,1,2,3,4,5,6,7,8,9,10,11,12,13,14,15]","{""itemA"":""become hungry"",""itemB"":""become hungry"",""categoryA"":""physiological"",""categoryB"":""physiological"",""attention_check"":false,""correct_response"":null}","","","","","","","",""
"","","","","","survey-slider","14","null","1102250","67398118ACF140429F4D0D8BBA7EFF7B","bdbaec55-661c-42d0-a346-3d0d2b06191c","c9908d3c-c6c0-4ff0-8197-ad6b853728e6","","92112","","{""Q0"":""89"",""Q1"":""97"",""Q2"":""100"",""Q3"":""96"",""Q4"":""99"",""Q5"":""46"",""Q6"":""75"",""Q7"":""83"",""Q8"":""83"",""Q9"":""70"",""Q10"":""59"",""Q11"":""97"",""Q12"":""51"",""Q13"":""96"",""Q14"":""72""}","","{""itemA"":""see something"",""itemB"":""choose what to do"",""categoryA"":""cognitive"",""categoryB"":""cognitive"",""attention_check"":false,""correct_response"":null}","{""itemA"":""see something"",""itemB"":""think about something"",""categoryA"":""cognitive"",""categoryB"":""cognitive"",""attention_check"":false,""correct_response"":null}","{""itemA"":""see something"",""itemB"":""see something"",""categoryA"":""cognitive"",""categoryB"":""cognitive"",""attention_check"":false,""correct_response"":null}","{""itemA"":""see something"",""itemB"":""remember something"",""categoryA"":""cognitive"",""categoryB"":""cognitive"",""attention_check"":false,""correct_response"":null}","{""itemA"":""see something"",""itemB"":""become hungry"",""categoryA"":""cognitive"",""categoryB"":""physiological"",""attention_check"":false,""correct_response"":null}","{""itemA"":""see something"",""itemB"":""experience pain"",""categoryA"":""cognitive"",""categoryB"":""physiological"",""attention_check"":false,""correct_response"":null}","{""itemA"":""see something"",""itemB"":""sit down"",""categoryA"":""cognitive"",""categoryB"":""physical"",""attention_check"":false,""correct_response"":null}","{""itemA"":""see something"",""itemB"":""kick something"",""categoryA"":""cognitive"",""categoryB"":""physical"",""attention_check"":false,""correct_response"":null}","{""itemA"":""see something"",""itemB"":""get sick"",""categoryA"":""cognitive"",""categoryB"":""physiological"",""attention_check"":false,""correct_response"":null}","{""itemA"":""see something"",""itemB"":""get tired"",""categoryA"":""cognitive"",""categoryB"":""physiological"",""attention_check"":false,""correct_response"":null}","{""itemA"":""see something"",""itemB"":""jump up and down"",""categoryA"":""cognitive"",""categoryB"":""physical"",""attention_check"":false,""correct_response"":null}","{""itemA"":""see something"",""itemB"":""feel scared"",""categoryA"":""cognitive"",""categoryB"":""physiological"",""attention_check"":false,""correct_response"":null}","{""itemA"":""see something"",""itemB"":""hear something"",""categoryA"":""cognitive"",""categoryB"":""cognitive"",""attention_check"":false,""correct_response"":null}","{""itemA"":""see something"",""itemB"":""reach for something"",""categoryA"":""cognitive"",""categoryB"":""physical"",""attention_check"":false,""correct_response"":null}","{""itemA"":""see something"",""itemB"":""take a walk"",""categoryA"":""cognitive"",""categoryB"":""physical"",""attention_check"":false,""correct_response"":null}","[0,1,2,3,4,5,6,7,8,9,10,11,12,13,14]","","","","","","","","",""
"","","","","","survey-slider","15","null","1182605","67398118ACF140429F4D0D8BBA7EFF7B","bdbaec55-661c-42d0-a346-3d0d2b06191c","c9908d3c-c6c0-4ff0-8197-ad6b853728e6","","80349","","{""Q0"":""46"",""Q1"":""83"",""Q2"":""68"",""Q3"":""17"",""Q4"":""24"",""Q5"":""85"",""Q6"":""94"",""Q7"":""94"",""Q8"":""90"",""Q9"":""69"",""Q10"":""58"",""Q11"":""76"",""Q12"":""77"",""Q13"":""100"",""Q14"":""11""}","","{""itemA"":""take a walk"",""itemB"":""choose what to do"",""categoryA"":""physical"",""categoryB"":""cognitive"",""attention_check"":false,""correct_response"":null}","{""itemA"":""take a walk"",""itemB"":""get tired"",""categoryA"":""physical"",""categoryB"":""physiological"",""attention_check"":false,""correct_response"":null}","{""itemA"":""take a walk"",""itemB"":""think about something"",""categoryA"":""physical"",""categoryB"":""cognitive"",""attention_check"":false,""correct_response"":null}","{""itemA"":""take a walk"",""itemB"":""get sick"",""categoryA"":""physical"",""categoryB"":""physiological"",""attention_check"":false,""correct_response"":null}","{""itemA"":""take a walk"",""itemB"":""kick something"",""categoryA"":""physical"",""categoryB"":""physical"",""attention_check"":false,""correct_response"":null}","{""itemA"":""take a walk"",""itemB"":""sit down"",""categoryA"":""physical"",""categoryB"":""physical"",""attention_check"":false,""correct_response"":null}","{""itemA"":""take a walk"",""itemB"":""see something"",""categoryA"":""physical"",""categoryB"":""cognitive"",""attention_check"":false,""correct_response"":null}","{""itemA"":""take a walk"",""itemB"":""remember something"",""categoryA"":""physical"",""categoryB"":""cognitive"",""attention_check"":false,""correct_response"":null}","{""itemA"":""take a walk"",""itemB"":""become hungry"",""categoryA"":""physical"",""categoryB"":""physiological"",""attention_check"":false,""correct_response"":null}","{""itemA"":""take a walk"",""itemB"":""reach for something"",""categoryA"":""physical"",""categoryB"":""physical"",""attention_check"":false,""correct_response"":null}","{""itemA"":""take a walk"",""itemB"":""jump up and down"",""categoryA"":""physical"",""categoryB"":""physical"",""attention_check"":false,""correct_response"":null}","{""itemA"":""take a walk"",""itemB"":""experience pain"",""categoryA"":""physical"",""categoryB"":""physiological"",""attention_check"":false,""correct_response"":null}","{""itemA"":""take a walk"",""itemB"":""hear something"",""categoryA"":""physical"",""categoryB"":""cognitive"",""attention_check"":false,""correct_response"":null}","{""itemA"":""take a walk"",""itemB"":""take a walk"",""categoryA"":""physical"",""categoryB"":""physical"",""attention_check"":false,""correct_response"":null}","{""itemA"":""take a walk"",""itemB"":""feel scared"",""categoryA"":""physical"",""categoryB"":""physiological"",""attention_check"":false,""correct_response"":null}","[0,1,2,3,4,5,6,7,8,9,10,11,12,13,14]","","","","","","","","",""
"","","","","","survey-slider","16","null","1305466","67398118ACF140429F4D0D8BBA7EFF7B","bdbaec55-661c-42d0-a346-3d0d2b06191c","c9908d3c-c6c0-4ff0-8197-ad6b853728e6","","122854","","{""Q0"":""97"",""Q1"":""59"",""Q2"":""14"",""Q3"":""58"",""Q4"":""56"",""Q5"":""19"",""Q6"":""57"",""Q7"":""100"",""Q8"":""68"",""Q9"":""87"",""Q10"":""68"",""Q11"":""39"",""Q12"":""41"",""Q13"":""31"",""Q14"":""100"",""Q15"":""2""}","","{""itemA"":""reach for something"",""itemB"":""jump up and down"",""categoryA"":""physical"",""categoryB"":""physical"",""attention_check"":false,""correct_response"":null}","{""itemA"":""reach for something"",""itemB"":""remember something"",""categoryA"":""physical"",""categoryB"":""cognitive"",""attention_check"":false,""correct_response"":null}","{""itemA"":""reach for something"",""itemB"":""get sick"",""categoryA"":""physical"",""categoryB"":""physiological"",""attention_check"":false,""correct_response"":null}","{""itemA"":""reach for something"",""itemB"":""think about something"",""categoryA"":""physical"",""categoryB"":""cognitive"",""attention_check"":false,""correct_response"":null}","{""itemA"":""reach for something"",""itemB"":""experience pain"",""categoryA"":""physical"",""categoryB"":""physiological"",""attention_check"":false,""correct_response"":null}","{""itemA"":""reach for something"",""itemB"":""sit down"",""categoryA"":""physical"",""categoryB"":""physical"",""attention_check"":false,""correct_response"":null}","{""itemA"":""reach for something"",""itemB"":""feel scared"",""categoryA"":""physical"",""categoryB"":""physiological"",""attention_check"":false,""correct_response"":null}","{""itemA"":null,""itemB"":null,""categoryA"":null,""categoryB"":null,""attention_check"":true,""correct_response"":100}","{""itemA"":""reach for something"",""itemB"":""see something"",""categoryA"":""physical"",""categoryB"":""cognitive"",""attention_check"":false,""correct_response"":null}","{""itemA"":""reach for something"",""itemB"":""choose what to do"",""categoryA"":""physical"",""categoryB"":""cognitive"",""attention_check"":false,""correct_response"":null}","{""itemA"":""reach for something"",""itemB"":""get tired"",""categoryA"":""physical"",""categoryB"":""physiological"",""attention_check"":false,""correct_response"":null}","{""itemA"":""reach for something"",""itemB"":""become hungry"",""categoryA"":""physical"",""categoryB"":""physiological"",""attention_check"":false,""correct_response"":null}","{""itemA"":""reach for something"",""itemB"":""take a walk"",""categoryA"":""physical"",""categoryB"":""physical"",""attention_check"":false,""correct_response"":null}","{""itemA"":""reach for something"",""itemB"":""hear something"",""categoryA"":""physical"",""categoryB"":""cognitive"",""attention_check"":false,""correct_response"":null}","{""itemA"":""reach for something"",""itemB"":""reach for something"",""categoryA"":""physical"",""categoryB"":""physical"",""attention_check"":false,""correct_response"":null}","[0,1,2,3,4,5,6,7,8,9,10,11,12,13,14,15]","{""itemA"":""reach for something"",""itemB"":""kick something"",""categoryA"":""physical"",""categoryB"":""physical"",""attention_check"":false,""correct_response"":null}","","","","","","","",""
"","","","","","survey-slider","17","null","1390006","67398118ACF140429F4D0D8BBA7EFF7B","bdbaec55-661c-42d0-a346-3d0d2b06191c","c9908d3c-c6c0-4ff0-8197-ad6b853728e6","","84535","","{""Q0"":""85"",""Q1"":""93"",""Q2"":""67"",""Q3"":""100"",""Q4"":""88"",""Q5"":""61"",""Q6"":""38"",""Q7"":""91"",""Q8"":""96"",""Q9"":""33"",""Q10"":""100"",""Q11"":""70"",""Q12"":""60"",""Q13"":""58"",""Q14"":""55""}","","{""itemA"":""remember something"",""itemB"":""reach for something"",""categoryA"":""cognitive"",""categoryB"":""physical"",""attention_check"":false,""correct_response"":null}","{""itemA"":""remember something"",""itemB"":""kick something"",""categoryA"":""cognitive"",""categoryB"":""physical"",""attention_check"":false,""correct_response"":null}","{""itemA"":""remember something"",""itemB"":""hear something"",""categoryA"":""cognitive"",""categoryB"":""cognitive"",""attention_check"":false,""correct_response"":null}","{""itemA"":""remember something"",""itemB"":""remember something"",""categoryA"":""cognitive"",""categoryB"":""cognitive"",""attention_check"":false,""correct_response"":null}","{""itemA"":""remember something"",""itemB"":""jump up and down"",""categoryA"":""cognitive"",""categoryB"":""physical"",""attention_check"":false,""correct_response"":null}","{""itemA"":""remember something"",""itemB"":""see something"",""categoryA"":""cognitive"",""categoryB"":""cognitive"",""attention_check"":false,""correct_response"":null}","{""itemA"":""remember something"",""itemB"":""experience pain"",""categoryA"":""cognitive"",""categoryB"":""physiological"",""attention_check"":false,""correct_response"":null}","{""itemA"":""remember something"",""itemB"":""feel scared"",""categoryA"":""cognitive"",""categoryB"":""physiological"",""attention_check"":false,""correct_response"":null}","{""itemA"":""remember something"",""itemB"":""choose what to do"",""categoryA"":""cognitive"",""categoryB"":""cognitive"",""attention_check"":false,""correct_response"":null}","{""itemA"":""remember something"",""itemB"":""get tired"",""categoryA"":""cognitive"",""categoryB"":""physiological"",""attention_check"":false,""correct_response"":null}","{""itemA"":""remember something"",""itemB"":""think about something"",""categoryA"":""cognitive"",""categoryB"":""cognitive"",""attention_check"":false,""correct_response"":null}","{""itemA"":""remember something"",""itemB"":""become hungry"",""categoryA"":""cognitive"",""categoryB"":""physiological"",""attention_check"":false,""correct_response"":null}","{""itemA"":""remember something"",""itemB"":""take a walk"",""categoryA"":""cognitive"",""categoryB"":""physical"",""attention_check"":false,""correct_response"":null}","{""itemA"":""remember something"",""itemB"":""sit down"",""categoryA"":""cognitive"",""categoryB"":""physical"",""attention_check"":false,""correct_response"":null}","{""itemA"":""remember something"",""itemB"":""get sick"",""categoryA"":""cognitive"",""categoryB"":""physiological"",""attention_check"":false,""correct_response"":null}","[0,1,2,3,4,5,6,7,8,9,10,11,12,13,14]","","","","","","","","",""
"","","","","","survey-slider","18","null","1463453","67398118ACF140429F4D0D8BBA7EFF7B","bdbaec55-661c-42d0-a346-3d0d2b06191c","c9908d3c-c6c0-4ff0-8197-ad6b853728e6","","73441","","{""Q0"":""93"",""Q1"":""11"",""Q2"":""26"",""Q3"":""14"",""Q4"":""7"",""Q5"":""3"",""Q6"":""98"",""Q7"":""35"",""Q8"":""6"",""Q9"":""63"",""Q10"":""28"",""Q11"":""100"",""Q12"":""54"",""Q13"":""32"",""Q14"":""23""}","","{""itemA"":""get tired"",""itemB"":""choose what to do"",""categoryA"":""physiological"",""categoryB"":""cognitive"",""attention_check"":false,""correct_response"":null}","{""itemA"":""get tired"",""itemB"":""jump up and down"",""categoryA"":""physiological"",""categoryB"":""physical"",""attention_check"":false,""correct_response"":null}","{""itemA"":""get tired"",""itemB"":""experience pain"",""categoryA"":""physiological"",""categoryB"":""physiological"",""attention_check"":false,""correct_response"":null}","{""itemA"":""get tired"",""itemB"":""kick something"",""categoryA"":""physiological"",""categoryB"":""physical"",""attention_check"":false,""correct_response"":null}","{""itemA"":""get tired"",""itemB"":""feel scared"",""categoryA"":""physiological"",""categoryB"":""physiological"",""attention_check"":false,""correct_response"":null}","{""itemA"":""get tired"",""itemB"":""take a walk"",""categoryA"":""physiological"",""categoryB"":""physical"",""attention_check"":false,""correct_response"":null}","{""itemA"":""get tired"",""itemB"":""sit down"",""categoryA"":""physiological"",""categoryB"":""physical"",""attention_check"":false,""correct_response"":null}","{""itemA"":""get tired"",""itemB"":""hear something"",""categoryA"":""physiological"",""categoryB"":""cognitive"",""attention_check"":false,""correct_response"":null}","{""itemA"":""get tired"",""itemB"":""become hungry"",""categoryA"":""physiological"",""categoryB"":""physiological"",""attention_check"":false,""correct_response"":null}","{""itemA"":""get tired"",""itemB"":""reach for something"",""categoryA"":""physiological"",""categoryB"":""physical"",""attention_check"":false,""correct_response"":null}","{""itemA"":""get tired"",""itemB"":""get sick"",""categoryA"":""physiological"",""categoryB"":""physiological"",""attention_check"":false,""correct_response"":null}","{""itemA"":""get tired"",""itemB"":""get tired"",""categoryA"":""physiological"",""categoryB"":""physiological"",""attention_check"":false,""correct_response"":null}","{""itemA"":""get tired"",""itemB"":""think about something"",""categoryA"":""physiological"",""categoryB"":""cognitive"",""attention_check"":false,""correct_response"":null}","{""itemA"":""get tired"",""itemB"":""remember something"",""categoryA"":""physiological"",""categoryB"":""cognitive"",""attention_check"":false,""correct_response"":null}","{""itemA"":""get tired"",""itemB"":""see something"",""categoryA"":""physiological"",""categoryB"":""cognitive"",""attention_check"":false,""correct_response"":null}","[0,1,2,3,4,5,6,7,8,9,10,11,12,13,14]","","","","","","","","",""
"","","","","","instructions","19","2.0.0","1476065","67398118ACF140429F4D0D8BBA7EFF7B","bdbaec55-661c-42d0-a346-3d0d2b06191c","c9908d3c-c6c0-4ff0-8197-ad6b853728e6","","12609","","","[{""page_index"":0,""viewing_time"":12609}]","","","","","","","","","","","","","","","","","","","","","","","","",""
"","","","","","video-button-response","20","2.0.0","1508910","67398118ACF140429F4D0D8BBA7EFF7B","bdbaec55-661c-42d0-a346-3d0d2b06191c","c9908d3c-c6c0-4ff0-8197-ad6b853728e6","example_videos","32812","[""video/example-video-circles.mp4""]","0","","","","","","","","","","","","","","","","","","","","","","","","","",""
"","","","","","free-sort","21","2.0.1","1856351","67398118ACF140429F4D0D8BBA7EFF7B","bdbaec55-661c-42d0-a346-3d0d2b06191c","c9908d3c-c6c0-4ff0-8197-ad6b853728e6","","347436","","","","","","","","","","","","","","","","","","","","","[{""src"":""images/items-circles/img5.png"",""x"":610.4166666666667,""y"":0},{""src"":""images/items-circles/img8.png"",""x"":-60.41666666666666,""y"":550},{""src"":""images/items-circles/img10.png"",""x"":610.4166666666667,""y"":183.33333333333334},{""src"":""images/items-circles/img14.png"",""x"":-60.41666666666666,""y"":366.6666666666667},{""src"":""images/items-circles/img12.png"",""x"":610.4166666666667,""y"":366.6666666666667},{""src"":""images/items-circles/img7.png"",""x"":-60.41666666666666,""y"":183.33333333333334},{""src"":""images/items-circles/img3.png"",""x"":610.4166666666667,""y"":550},{""src"":""images/items-circles/img6.png"",""x"":-60.41666666666666,""y"":0},{""src"":""images/items-circles/img13.png"",""x"":793.75,""y"":0},{""src"":""images/items-circles/img15.png"",""x"":-243.75,""y"":550},{""src"":""images/items-circles/img11.png"",""x"":793.75,""y"":183.33333333333334},{""src"":""images/items-circles/img9.png"",""x"":-243.75,""y"":366.6666666666667},{""src"":""images/items-circles/img1.png"",""x"":793.75,""y"":366.6666666666667},{""src"":""images/items-circles/img4.png"",""x"":-243.75,""y"":183.33333333333334},{""src"":""images/items-circles/img2.png"",""x"":793.75,""y"":550}]","[{""src"":""images/items-circles/img5.png"",""x"":349,""y"":63},{""src"":""images/items-circles/img6.png"",""x"":417,""y"":137},{""src"":""images/items-circles/img10.png"",""x"":348,""y"":345},{""src"":""images/items-circles/img13.png"",""x"":212,""y"":487},{""src"":""images/items-circles/img2.png"",""x"":129,""y"":327},{""src"":""images/items-circles/img10.png"",""x"":617,""y"":50},{""src"":""images/items-circles/img13.png"",""x"":-116,""y"":53},{""src"":""images/items-circles/img11.png"",""x"":708,""y"":205},{""src"":""images/items-circles/img15.png"",""x"":327,""y"":147},{""src"":""images/items-circles/img6.png"",""x"":403,""y"":268},{""src"":""images/items-circles/img6.png"",""x"":396,""y"":116},{""src"":""images/items-circles/img15.png"",""x"":323,""y"":126},{""src"":""images/items-circles/img6.png"",""x"":396,""y"":116},{""src"":""images/items-circles/img6.png"",""x"":421,""y"":119},{""src"":""images/items-circles/img6.png"",""x"":414,""y"":137},{""src"":""images/items-circles/img15.png"",""x"":329,""y"":133},{""src"":""images/items-circles/img12.png"",""x"":236,""y"":467},{""src"":""images/items-circles/img14.png"",""x"":138,""y"":449},{""src"":""images/items-circles/img13.png"",""x"":244,""y"":386},{""src"":""images/items-circles/img15.png"",""x"":168,""y"":67},{""src"":""images/items-circles/img5.png"",""x"":760,""y"":127},{""src"":""images/items-circles/img6.png"",""x"":682,""y"":336},{""src"":""images/items-circles/img2.png"",""x"":289,""y"":48},{""src"":""images/items-circles/img13.png"",""x"":350,""y"":85},{""src"":""images/items-circles/img13.png"",""x"":350,""y"":85},{""src"":""images/items-circles/img14.png"",""x"":261,""y"":121},{""src"":""images/items-circles/img12.png"",""x"":379,""y"":146},{""src"":""images/items-circles/img15.png"",""x"":168,""y"":128},{""src"":""images/items-circles/img14.png"",""x"":254,""y"":107},{""src"":""images/items-circles/img15.png"",""x"":177,""y"":177},{""src"":""images/items-circles/img15.png"",""x"":289,""y"":171},{""src"":""images/items-circles/img9.png"",""x"":57,""y"":359},{""src"":""images/items-circles/img11.png"",""x"":124,""y"":418},{""src"":""images/items-circles/img9.png"",""x"":57,""y"":359},{""src"":""images/items-circles/img1.png"",""x"":140,""y"":334},{""src"":""images/items-circles/img3.png"",""x"":77,""y"":277},{""src"":""images/items-circles/img7.png"",""x"":507,""y"":340},{""src"":""images/items-circles/img5.png"",""x"":511,""y"":276},{""src"":""images/items-circles/img4.png"",""x"":432,""y"":301},{""src"":""images/items-circles/img8.png"",""x"":-118,""y"":389},{""src"":""images/items-circles/img8.png"",""x"":-118,""y"":389},{""src"":""images/items-circles/img8.png"",""x"":307,""y"":480},{""src"":""images/items-circles/img10.png"",""x"":617,""y"":50},{""src"":""images/items-circles/img10.png"",""x"":273,""y"":428},{""src"":""images/items-circles/img6.png"",""x"":682,""y"":336},{""src"":""images/items-circles/img6.png"",""x"":385,""y"":483},{""src"":""images/items-circles/img8.png"",""x"":307,""y"":480},{""src"":""images/items-circles/img6.png"",""x"":436,""y"":364},{""src"":""images/items-circles/img8.png"",""x"":316,""y"":533},{""src"":""images/items-circles/img10.png"",""x"":275,""y"":488}]","[{""src"":""images/items-circles/img5.png"",""x"":511,""y"":276},{""src"":""images/items-circles/img8.png"",""x"":316,""y"":533},{""src"":""images/items-circles/img10.png"",""x"":275,""y"":488},{""src"":""images/items-circles/img14.png"",""x"":254,""y"":107},{""src"":""images/items-circles/img12.png"",""x"":379,""y"":146},{""src"":""images/items-circles/img7.png"",""x"":507,""y"":340},{""src"":""images/items-circles/img3.png"",""x"":77,""y"":277},{""src"":""images/items-circles/img6.png"",""x"":436,""y"":364},{""src"":""images/items-circles/img13.png"",""x"":350,""y"":85},{""src"":""images/items-circles/img15.png"",""x"":289,""y"":171},{""src"":""images/items-circles/img11.png"",""x"":124,""y"":418},{""src"":""images/items-circles/img9.png"",""x"":57,""y"":359},{""src"":""images/items-circles/img1.png"",""x"":140,""y"":334},{""src"":""images/items-circles/img4.png"",""x"":432,""y"":301},{""src"":""images/items-circles/img2.png"",""x"":289,""y"":48}]","","","","",""
"","","","","","instructions","22","2.0.0","1875416","67398118ACF140429F4D0D8BBA7EFF7B","bdbaec55-661c-42d0-a346-3d0d2b06191c","c9908d3c-c6c0-4ff0-8197-ad6b853728e6","","19062","","","[{""page_index"":0,""viewing_time"":19062}]","","","","","","","","","","","","","","","","","","","","","","","","",""
"","","","","","survey-html-form","23","2.0.0","2084642","67398118ACF140429F4D0D8BBA7EFF7B","bdbaec55-661c-42d0-a346-3d0d2b06191c","c9908d3c-c6c0-4ff0-8197-ad6b853728e6","demographics_survey","209223","","{""feedback"":""I was trying to be logical and used scenarios to inform my decisions. For example, does hearing a sound result in kicking something?  yes, because a person could hear a whistle and that will trigger kicking a ball. "",""age"":""50"",""gender"":""Male"",""other_gender"":"""",""race"":""Asian"",""other_race"":"""",""ethnicity"":""Non-Hispanic""}","","","","","","","","","","","","","","","","","","","","","","I was trying to be logical and used scenarios to inform my decisions. For example, does hearing a sound result in kicking something?  yes, because a person could hear a whistle and that will trigger kicking a ball. ","50","Non-Hispanic","Male","Asian"
