"success","timeout","failed_images","failed_audio","failed_video","trial_type","trial_index","plugin_version","time_elapsed","mturk_participant_id","mturk_assignment_id","mturk_project_id","trial_id","rt","stimulus","response","view_history","0","1","2","3","4","5","6","7","8","9","10","11","12","13","14","question_order","15","init_locations","moves","final_locations","feedback","age","ethnicity","gender","race"
"true","false","[]","[]","[]","preload","0","2.0.0","1537","D6096ADB14F042928364519E4EB8929C","b41c007e-c148-4822-9f96-567e640f4c32","c9908d3c-c6c0-4ff0-8197-ad6b853728e6","","","","","","","","","","","","","","","","","","","","","","","","","","","","","",""
"","","","","","html-button-response","1","2.0.0","40748","D6096ADB14F042928364519E4EB8929C","b41c007e-c148-4822-9f96-567e640f4c32","c9908d3c-c6c0-4ff0-8197-ad6b853728e6","consent","39209","<p><b>Consent Form</b></p> <div style=""text-align:left;background-color:lightblue; padding:2vw; max-width:80vw;""><p><b>Purpose:</b> The purpose of this study is to understand how people think about the physical and social world.</p><p><b>Procedures:</b> In this study, you will watch videos, read sentences, or see pictures, and answer simple questions about them. This study should take approximately 30 minutes</p><p><b>Participation:</b> Participation in this study is voluntary. If you decide to join now, you can change your mind later. </p><p><b>Payment:</b> You will be paid $15.00/hour for participating in this study. Given the estimated duration of 30 minutes, your payment will amount to $7.50.</p><p><b>Risks and benefits:</b> There are no risks associated with participating in this study. There are no direct benefits associated with participating in this study. </p><p><b>Use of data by study researchers:</b> The research team led by Shari Liu at JHU will have access to your answers. </p><p><b>Publication of results:</b> The results of the research may be presented at scientific meetings or published in scientific journals. Your individual responses may be published. We will never publish your name, the date that you participated, and any other information that could be used to identify you. </p><p><b>Researcher contact information:</b> This study is run by Dr. Shari Liu at JHU. If you have any questions or concerns about this study, or in the very unlikely event of a research-related injury, please contact sliu199@jhu.edu. </p><p><b>Research rights information:</b> If you have questions about your rights as a research participant or feel that you have not been treated fairly, please call the Homewood Institutional Review Board at Johns Hopkins University at (410) 516-6580. If you have any questions or issues completing the survey, please email Shari Liu at sliu199@jhu.edu. </p> </div><p> Do you consent to participate? </p>","0","","","","","","","","","","","","","","","","","","","","","","","","","",""
"","","","","","instructions","2","2.0.0","53500","D6096ADB14F042928364519E4EB8929C","b41c007e-c148-4822-9f96-567e640f4c32","c9908d3c-c6c0-4ff0-8197-ad6b853728e6","","12750","","","[{""page_index"":0,""viewing_time"":12750}]","","","","","","","","","","","","","","","","","","","","","","","","",""
"","","","","","instructions","3","2.0.0","63336","D6096ADB14F042928364519E4EB8929C","b41c007e-c148-4822-9f96-567e640f4c32","c9908d3c-c6c0-4ff0-8197-ad6b853728e6","","9835","","","[{""page_index"":0,""viewing_time"":9835}]","","","","","","","","","","","","","","","","","","","","","","","","",""
"","","","","","survey-slider","4","null","144987","D6096ADB14F042928364519E4EB8929C","b41c007e-c148-4822-9f96-567e640f4c32","c9908d3c-c6c0-4ff0-8197-ad6b853728e6","","81645.30000019073","","{""Q0"":""76"",""Q1"":""26"",""Q2"":""1"",""Q3"":""98"",""Q4"":""75"",""Q5"":""76"",""Q6"":""50"",""Q7"":""74"",""Q8"":""97"",""Q9"":""50"",""Q10"":""25"",""Q11"":""76"",""Q12"":""100"",""Q13"":""75"",""Q14"":""75""}","","{""itemA"":""choose what to do"",""itemB"":""remember something"",""categoryA"":""cognitive"",""categoryB"":""cognitive"",""attention_check"":false,""correct_response"":null}","{""itemA"":""choose what to do"",""itemB"":""become hungry"",""categoryA"":""cognitive"",""categoryB"":""physiological"",""attention_check"":false,""correct_response"":null}","{""itemA"":""choose what to do"",""itemB"":""kick something"",""categoryA"":""cognitive"",""categoryB"":""physical"",""attention_check"":false,""correct_response"":null}","{""itemA"":""choose what to do"",""itemB"":""get tired"",""categoryA"":""cognitive"",""categoryB"":""physiological"",""attention_check"":false,""correct_response"":null}","{""itemA"":""choose what to do"",""itemB"":""think about something"",""categoryA"":""cognitive"",""categoryB"":""cognitive"",""attention_check"":false,""correct_response"":null}","{""itemA"":""choose what to do"",""itemB"":""hear something"",""categoryA"":""cognitive"",""categoryB"":""cognitive"",""attention_check"":false,""correct_response"":null}","{""itemA"":""choose what to do"",""itemB"":""feel scared"",""categoryA"":""cognitive"",""categoryB"":""physiological"",""attention_check"":false,""correct_response"":null}","{""itemA"":""choose what to do"",""itemB"":""experience pain"",""categoryA"":""cognitive"",""categoryB"":""physiological"",""attention_check"":false,""correct_response"":null}","{""itemA"":""choose what to do"",""itemB"":""see something"",""categoryA"":""cognitive"",""categoryB"":""cognitive"",""attention_check"":false,""correct_response"":null}","{""itemA"":""choose what to do"",""itemB"":""take a walk"",""categoryA"":""cognitive"",""categoryB"":""physical"",""attention_check"":false,""correct_response"":null}","{""itemA"":""choose what to do"",""itemB"":""reach for something"",""categoryA"":""cognitive"",""categoryB"":""physical"",""attention_check"":false,""correct_response"":null}","{""itemA"":""choose what to do"",""itemB"":""get sick"",""categoryA"":""cognitive"",""categoryB"":""physiological"",""attention_check"":false,""correct_response"":null}","{""itemA"":""choose what to do"",""itemB"":""choose what to do"",""categoryA"":""cognitive"",""categoryB"":""cognitive"",""attention_check"":false,""correct_response"":null}","{""itemA"":""choose what to do"",""itemB"":""sit down"",""categoryA"":""cognitive"",""categoryB"":""physical"",""attention_check"":false,""correct_response"":null}","{""itemA"":""choose what to do"",""itemB"":""jump up and down"",""categoryA"":""cognitive"",""categoryB"":""physical"",""attention_check"":false,""correct_response"":null}","[0,1,2,3,4,5,6,7,8,9,10,11,12,13,14]","","","","","","","","",""
"","","","","","survey-slider","5","null","216684","D6096ADB14F042928364519E4EB8929C","b41c007e-c148-4822-9f96-567e640f4c32","c9908d3c-c6c0-4ff0-8197-ad6b853728e6","","71691.80000019073","","{""Q0"":""100"",""Q1"":""100"",""Q2"":""100"",""Q3"":""75"",""Q4"":""86"",""Q5"":""75"",""Q6"":""26"",""Q7"":""0"",""Q8"":""76"",""Q9"":""99"",""Q10"":""100"",""Q11"":""100"",""Q12"":""87"",""Q13"":""90"",""Q14"":""89""}","","{""itemA"":""see something"",""itemB"":""think about something"",""categoryA"":""cognitive"",""categoryB"":""cognitive"",""attention_check"":false,""correct_response"":null}","{""itemA"":""see something"",""itemB"":""hear something"",""categoryA"":""cognitive"",""categoryB"":""cognitive"",""attention_check"":false,""correct_response"":null}","{""itemA"":""see something"",""itemB"":""remember something"",""categoryA"":""cognitive"",""categoryB"":""cognitive"",""attention_check"":false,""correct_response"":null}","{""itemA"":""see something"",""itemB"":""get tired"",""categoryA"":""cognitive"",""categoryB"":""physiological"",""attention_check"":false,""correct_response"":null}","{""itemA"":""see something"",""itemB"":""choose what to do"",""categoryA"":""cognitive"",""categoryB"":""cognitive"",""attention_check"":false,""correct_response"":null}","{""itemA"":""see something"",""itemB"":""take a walk"",""categoryA"":""cognitive"",""categoryB"":""physical"",""attention_check"":false,""correct_response"":null}","{""itemA"":""see something"",""itemB"":""kick something"",""categoryA"":""cognitive"",""categoryB"":""physical"",""attention_check"":false,""correct_response"":null}","{""itemA"":""see something"",""itemB"":""get sick"",""categoryA"":""cognitive"",""categoryB"":""physiological"",""attention_check"":false,""correct_response"":null}","{""itemA"":""see something"",""itemB"":""sit down"",""categoryA"":""cognitive"",""categoryB"":""physical"",""attention_check"":false,""correct_response"":null}","{""itemA"":""see something"",""itemB"":""jump up and down"",""categoryA"":""cognitive"",""categoryB"":""physical"",""attention_check"":false,""correct_response"":null}","{""itemA"":""see something"",""itemB"":""see something"",""categoryA"":""cognitive"",""categoryB"":""cognitive"",""attention_check"":false,""correct_response"":null}","{""itemA"":""see something"",""itemB"":""become hungry"",""categoryA"":""cognitive"",""categoryB"":""physiological"",""attention_check"":false,""correct_response"":null}","{""itemA"":""see something"",""itemB"":""experience pain"",""categoryA"":""cognitive"",""categoryB"":""physiological"",""attention_check"":false,""correct_response"":null}","{""itemA"":""see something"",""itemB"":""feel scared"",""categoryA"":""cognitive"",""categoryB"":""physiological"",""attention_check"":false,""correct_response"":null}","{""itemA"":""see something"",""itemB"":""reach for something"",""categoryA"":""cognitive"",""categoryB"":""physical"",""attention_check"":false,""correct_response"":null}","[0,1,2,3,4,5,6,7,8,9,10,11,12,13,14]","","","","","","","","",""
"","","","","","survey-slider","6","null","298168","D6096ADB14F042928364519E4EB8929C","b41c007e-c148-4822-9f96-567e640f4c32","c9908d3c-c6c0-4ff0-8197-ad6b853728e6","","81479.19999980927","","{""Q0"":""100"",""Q1"":""77"",""Q2"":""26"",""Q3"":""77"",""Q4"":""100"",""Q5"":""75"",""Q6"":""0"",""Q7"":""74"",""Q8"":""26"",""Q9"":""50"",""Q10"":""74"",""Q11"":""76"",""Q12"":""27"",""Q13"":""25"",""Q14"":""77""}","","{""itemA"":""jump up and down"",""itemB"":""get tired"",""categoryA"":""physical"",""categoryB"":""physiological"",""attention_check"":false,""correct_response"":null}","{""itemA"":""jump up and down"",""itemB"":""hear something"",""categoryA"":""physical"",""categoryB"":""cognitive"",""attention_check"":false,""correct_response"":null}","{""itemA"":""jump up and down"",""itemB"":""feel scared"",""categoryA"":""physical"",""categoryB"":""physiological"",""attention_check"":false,""correct_response"":null}","{""itemA"":""jump up and down"",""itemB"":""get sick"",""categoryA"":""physical"",""categoryB"":""physiological"",""attention_check"":false,""correct_response"":null}","{""itemA"":""jump up and down"",""itemB"":""jump up and down"",""categoryA"":""physical"",""categoryB"":""physical"",""attention_check"":false,""correct_response"":null}","{""itemA"":""jump up and down"",""itemB"":""become hungry"",""categoryA"":""physical"",""categoryB"":""physiological"",""attention_check"":false,""correct_response"":null}","{""itemA"":""jump up and down"",""itemB"":""sit down"",""categoryA"":""physical"",""categoryB"":""physical"",""attention_check"":false,""correct_response"":null}","{""itemA"":""jump up and down"",""itemB"":""choose what to do"",""categoryA"":""physical"",""categoryB"":""cognitive"",""attention_check"":false,""correct_response"":null}","{""itemA"":""jump up and down"",""itemB"":""kick something"",""categoryA"":""physical"",""categoryB"":""physical"",""attention_check"":false,""correct_response"":null}","{""itemA"":""jump up and down"",""itemB"":""remember something"",""categoryA"":""physical"",""categoryB"":""cognitive"",""attention_check"":false,""correct_response"":null}","{""itemA"":""jump up and down"",""itemB"":""think about something"",""categoryA"":""physical"",""categoryB"":""cognitive"",""attention_check"":false,""correct_response"":null}","{""itemA"":""jump up and down"",""itemB"":""experience pain"",""categoryA"":""physical"",""categoryB"":""physiological"",""attention_check"":false,""correct_response"":null}","{""itemA"":""jump up and down"",""itemB"":""take a walk"",""categoryA"":""physical"",""categoryB"":""physical"",""attention_check"":false,""correct_response"":null}","{""itemA"":""jump up and down"",""itemB"":""see something"",""categoryA"":""physical"",""categoryB"":""cognitive"",""attention_check"":false,""correct_response"":null}","{""itemA"":""jump up and down"",""itemB"":""reach for something"",""categoryA"":""physical"",""categoryB"":""physical"",""attention_check"":false,""correct_response"":null}","[0,1,2,3,4,5,6,7,8,9,10,11,12,13,14]","","","","","","","","",""
"","","","","","survey-slider","7","null","414734","D6096ADB14F042928364519E4EB8929C","b41c007e-c148-4822-9f96-567e640f4c32","c9908d3c-c6c0-4ff0-8197-ad6b853728e6","","116559.69999980927","","{""Q0"":""100"",""Q1"":""86"",""Q2"":""100"",""Q3"":""75"",""Q4"":""100"",""Q5"":""76"",""Q6"":""0"",""Q7"":""76"",""Q8"":""25"",""Q9"":""76"",""Q10"":""100"",""Q11"":""74"",""Q12"":""25"",""Q13"":""76"",""Q14"":""100"",""Q15"":""89""}","","{""itemA"":""get sick"",""itemB"":""feel scared"",""categoryA"":""physiological"",""categoryB"":""physiological"",""attention_check"":false,""correct_response"":null}","{""itemA"":""get sick"",""itemB"":""reach for something"",""categoryA"":""physiological"",""categoryB"":""physical"",""attention_check"":false,""correct_response"":null}","{""itemA"":""get sick"",""itemB"":""get tired"",""categoryA"":""physiological"",""categoryB"":""physiological"",""attention_check"":false,""correct_response"":null}","{""itemA"":""get sick"",""itemB"":""hear something"",""categoryA"":""physiological"",""categoryB"":""cognitive"",""attention_check"":false,""correct_response"":null}","{""itemA"":""get sick"",""itemB"":""get sick"",""categoryA"":""physiological"",""categoryB"":""physiological"",""attention_check"":false,""correct_response"":null}","{""itemA"":""get sick"",""itemB"":""choose what to do"",""categoryA"":""physiological"",""categoryB"":""cognitive"",""attention_check"":false,""correct_response"":null}","{""itemA"":null,""itemB"":null,""categoryA"":null,""categoryB"":null,""attention_check"":true,""correct_response"":null}","{""itemA"":""get sick"",""itemB"":""remember something"",""categoryA"":""physiological"",""categoryB"":""cognitive"",""attention_check"":false,""correct_response"":null}","{""itemA"":""get sick"",""itemB"":""jump up and down"",""categoryA"":""physiological"",""categoryB"":""physical"",""attention_check"":false,""correct_response"":null}","{""itemA"":""get sick"",""itemB"":""see something"",""categoryA"":""physiological"",""categoryB"":""cognitive"",""attention_check"":false,""correct_response"":null}","{""itemA"":""get sick"",""itemB"":""become hungry"",""categoryA"":""physiological"",""categoryB"":""physiological"",""attention_check"":false,""correct_response"":null}","{""itemA"":""get sick"",""itemB"":""take a walk"",""categoryA"":""physiological"",""categoryB"":""physical"",""attention_check"":false,""correct_response"":null}","{""itemA"":""get sick"",""itemB"":""kick something"",""categoryA"":""physiological"",""categoryB"":""physical"",""attention_check"":false,""correct_response"":null}","{""itemA"":""get sick"",""itemB"":""think about something"",""categoryA"":""physiological"",""categoryB"":""cognitive"",""attention_check"":false,""correct_response"":null}","{""itemA"":""get sick"",""itemB"":""experience pain"",""categoryA"":""physiological"",""categoryB"":""physiological"",""attention_check"":false,""correct_response"":null}","[0,1,2,3,4,5,6,7,8,9,10,11,12,13,14,15]","{""itemA"":""get sick"",""itemB"":""sit down"",""categoryA"":""physiological"",""categoryB"":""physical"",""attention_check"":false,""correct_response"":null}","","","","","","","",""
"","","","","","survey-slider","8","null","481064","D6096ADB14F042928364519E4EB8929C","b41c007e-c148-4822-9f96-567e640f4c32","c9908d3c-c6c0-4ff0-8197-ad6b853728e6","","66324.30000019073","","{""Q0"":""100"",""Q1"":""75"",""Q2"":""89"",""Q3"":""25"",""Q4"":""75"",""Q5"":""74"",""Q6"":""26"",""Q7"":""75"",""Q8"":""75"",""Q9"":""0"",""Q10"":""100"",""Q11"":""75"",""Q12"":""100"",""Q13"":""75"",""Q14"":""25""}","","{""itemA"":""reach for something"",""itemB"":""jump up and down"",""categoryA"":""physical"",""categoryB"":""physical"",""attention_check"":false,""correct_response"":null}","{""itemA"":""reach for something"",""itemB"":""hear something"",""categoryA"":""physical"",""categoryB"":""cognitive"",""attention_check"":false,""correct_response"":null}","{""itemA"":""reach for something"",""itemB"":""experience pain"",""categoryA"":""physical"",""categoryB"":""physiological"",""attention_check"":false,""correct_response"":null}","{""itemA"":""reach for something"",""itemB"":""feel scared"",""categoryA"":""physical"",""categoryB"":""physiological"",""attention_check"":false,""correct_response"":null}","{""itemA"":""reach for something"",""itemB"":""choose what to do"",""categoryA"":""physical"",""categoryB"":""cognitive"",""attention_check"":false,""correct_response"":null}","{""itemA"":""reach for something"",""itemB"":""kick something"",""categoryA"":""physical"",""categoryB"":""physical"",""attention_check"":false,""correct_response"":null}","{""itemA"":""reach for something"",""itemB"":""see something"",""categoryA"":""physical"",""categoryB"":""cognitive"",""attention_check"":false,""correct_response"":null}","{""itemA"":""reach for something"",""itemB"":""think about something"",""categoryA"":""physical"",""categoryB"":""cognitive"",""attention_check"":false,""correct_response"":null}","{""itemA"":""reach for something"",""itemB"":""get sick"",""categoryA"":""physical"",""categoryB"":""physiological"",""attention_check"":false,""correct_response"":null}","{""itemA"":""reach for something"",""itemB"":""sit down"",""categoryA"":""physical"",""categoryB"":""physical"",""attention_check"":false,""correct_response"":null}","{""itemA"":""reach for something"",""itemB"":""get tired"",""categoryA"":""physical"",""categoryB"":""physiological"",""attention_check"":false,""correct_response"":null}","{""itemA"":""reach for something"",""itemB"":""remember something"",""categoryA"":""physical"",""categoryB"":""cognitive"",""attention_check"":false,""correct_response"":null}","{""itemA"":""reach for something"",""itemB"":""reach for something"",""categoryA"":""physical"",""categoryB"":""physical"",""attention_check"":false,""correct_response"":null}","{""itemA"":""reach for something"",""itemB"":""become hungry"",""categoryA"":""physical"",""categoryB"":""physiological"",""attention_check"":false,""correct_response"":null}","{""itemA"":""reach for something"",""itemB"":""take a walk"",""categoryA"":""physical"",""categoryB"":""physical"",""attention_check"":false,""correct_response"":null}","[0,1,2,3,4,5,6,7,8,9,10,11,12,13,14]","","","","","","","","",""
"","","","","","survey-slider","9","null","600465","D6096ADB14F042928364519E4EB8929C","b41c007e-c148-4822-9f96-567e640f4c32","c9908d3c-c6c0-4ff0-8197-ad6b853728e6","","119395.2999997139","","{""Q0"":""74"",""Q1"":""88"",""Q2"":""89"",""Q3"":""99"",""Q4"":""76"",""Q5"":""75"",""Q6"":""77"",""Q7"":""100"",""Q8"":""100"",""Q9"":""26"",""Q10"":""75"",""Q11"":""100"",""Q12"":""100"",""Q13"":""74"",""Q14"":""76""}","","{""itemA"":""remember something"",""itemB"":""get sick"",""categoryA"":""cognitive"",""categoryB"":""physiological"",""attention_check"":false,""correct_response"":null}","{""itemA"":""remember something"",""itemB"":""take a walk"",""categoryA"":""cognitive"",""categoryB"":""physical"",""attention_check"":false,""correct_response"":null}","{""itemA"":""remember something"",""itemB"":""choose what to do"",""categoryA"":""cognitive"",""categoryB"":""cognitive"",""attention_check"":false,""correct_response"":null}","{""itemA"":""remember something"",""itemB"":""experience pain"",""categoryA"":""cognitive"",""categoryB"":""physiological"",""attention_check"":false,""correct_response"":null}","{""itemA"":""remember something"",""itemB"":""hear something"",""categoryA"":""cognitive"",""categoryB"":""cognitive"",""attention_check"":false,""correct_response"":null}","{""itemA"":""remember something"",""itemB"":""sit down"",""categoryA"":""cognitive"",""categoryB"":""physical"",""attention_check"":false,""correct_response"":null}","{""itemA"":""remember something"",""itemB"":""reach for something"",""categoryA"":""cognitive"",""categoryB"":""physical"",""attention_check"":false,""correct_response"":null}","{""itemA"":""remember something"",""itemB"":""remember something"",""categoryA"":""cognitive"",""categoryB"":""cognitive"",""attention_check"":false,""correct_response"":null}","{""itemA"":""remember something"",""itemB"":""see something"",""categoryA"":""cognitive"",""categoryB"":""cognitive"",""attention_check"":false,""correct_response"":null}","{""itemA"":""remember something"",""itemB"":""kick something"",""categoryA"":""cognitive"",""categoryB"":""physical"",""attention_check"":false,""correct_response"":null}","{""itemA"":""remember something"",""itemB"":""jump up and down"",""categoryA"":""cognitive"",""categoryB"":""physical"",""attention_check"":false,""correct_response"":null}","{""itemA"":""remember something"",""itemB"":""become hungry"",""categoryA"":""cognitive"",""categoryB"":""physiological"",""attention_check"":false,""correct_response"":null}","{""itemA"":""remember something"",""itemB"":""think about something"",""categoryA"":""cognitive"",""categoryB"":""cognitive"",""attention_check"":false,""correct_response"":null}","{""itemA"":""remember something"",""itemB"":""feel scared"",""categoryA"":""cognitive"",""categoryB"":""physiological"",""attention_check"":false,""correct_response"":null}","{""itemA"":""remember something"",""itemB"":""get tired"",""categoryA"":""cognitive"",""categoryB"":""physiological"",""attention_check"":false,""correct_response"":null}","[0,1,2,3,4,5,6,7,8,9,10,11,12,13,14]","","","","","","","","",""
"","","","","","survey-slider","10","null","719465","D6096ADB14F042928364519E4EB8929C","b41c007e-c148-4822-9f96-567e640f4c32","c9908d3c-c6c0-4ff0-8197-ad6b853728e6","","118994.5","","{""Q0"":""25"",""Q1"":""76"",""Q2"":""0"",""Q3"":""50"",""Q4"":""26"",""Q5"":""0"",""Q6"":""76"",""Q7"":""76"",""Q8"":""26"",""Q9"":""26"",""Q10"":""25"",""Q11"":""74"",""Q12"":""100"",""Q13"":""75"",""Q14"":""75""}","","{""itemA"":""kick something"",""itemB"":""get sick"",""categoryA"":""physical"",""categoryB"":""physiological"",""attention_check"":false,""correct_response"":null}","{""itemA"":""kick something"",""itemB"":""remember something"",""categoryA"":""physical"",""categoryB"":""cognitive"",""attention_check"":false,""correct_response"":null}","{""itemA"":""kick something"",""itemB"":""sit down"",""categoryA"":""physical"",""categoryB"":""physical"",""attention_check"":false,""correct_response"":null}","{""itemA"":""kick something"",""itemB"":""see something"",""categoryA"":""physical"",""categoryB"":""cognitive"",""attention_check"":false,""correct_response"":null}","{""itemA"":""kick something"",""itemB"":""jump up and down"",""categoryA"":""physical"",""categoryB"":""physical"",""attention_check"":false,""correct_response"":null}","{""itemA"":""kick something"",""itemB"":""think about something"",""categoryA"":""physical"",""categoryB"":""cognitive"",""attention_check"":false,""correct_response"":null}","{""itemA"":""kick something"",""itemB"":""experience pain"",""categoryA"":""physical"",""categoryB"":""physiological"",""attention_check"":false,""correct_response"":null}","{""itemA"":""kick something"",""itemB"":""feel scared"",""categoryA"":""physical"",""categoryB"":""physiological"",""attention_check"":false,""correct_response"":null}","{""itemA"":""kick something"",""itemB"":""become hungry"",""categoryA"":""physical"",""categoryB"":""physiological"",""attention_check"":false,""correct_response"":null}","{""itemA"":""kick something"",""itemB"":""reach for something"",""categoryA"":""physical"",""categoryB"":""physical"",""attention_check"":false,""correct_response"":null}","{""itemA"":""kick something"",""itemB"":""take a walk"",""categoryA"":""physical"",""categoryB"":""physical"",""attention_check"":false,""correct_response"":null}","{""itemA"":""kick something"",""itemB"":""hear something"",""categoryA"":""physical"",""categoryB"":""cognitive"",""attention_check"":false,""correct_response"":null}","{""itemA"":""kick something"",""itemB"":""kick something"",""categoryA"":""physical"",""categoryB"":""physical"",""attention_check"":false,""correct_response"":null}","{""itemA"":""kick something"",""itemB"":""choose what to do"",""categoryA"":""physical"",""categoryB"":""cognitive"",""attention_check"":false,""correct_response"":null}","{""itemA"":""kick something"",""itemB"":""get tired"",""categoryA"":""physical"",""categoryB"":""physiological"",""attention_check"":false,""correct_response"":null}","[0,1,2,3,4,5,6,7,8,9,10,11,12,13,14]","","","","","","","","",""
"","","","","","survey-slider","11","null","809707","D6096ADB14F042928364519E4EB8929C","b41c007e-c148-4822-9f96-567e640f4c32","c9908d3c-c6c0-4ff0-8197-ad6b853728e6","","90238.5","","{""Q0"":""99"",""Q1"":""100"",""Q2"":""100"",""Q3"":""100"",""Q4"":""75"",""Q5"":""75"",""Q6"":""66"",""Q7"":""91"",""Q8"":""76"",""Q9"":""100"",""Q10"":""75"",""Q11"":""75"",""Q12"":""100"",""Q13"":""87"",""Q14"":""100"",""Q15"":""50""}","","{""itemA"":""feel scared"",""itemB"":""see something"",""categoryA"":""physiological"",""categoryB"":""cognitive"",""attention_check"":false,""correct_response"":null}","{""itemA"":""feel scared"",""itemB"":""remember something"",""categoryA"":""physiological"",""categoryB"":""cognitive"",""attention_check"":false,""correct_response"":null}","{""itemA"":""feel scared"",""itemB"":""think about something"",""categoryA"":""physiological"",""categoryB"":""cognitive"",""attention_check"":false,""correct_response"":null}","{""itemA"":""feel scared"",""itemB"":""jump up and down"",""categoryA"":""physiological"",""categoryB"":""physical"",""attention_check"":false,""correct_response"":null}","{""itemA"":""feel scared"",""itemB"":""choose what to do"",""categoryA"":""physiological"",""categoryB"":""cognitive"",""attention_check"":false,""correct_response"":null}","{""itemA"":""feel scared"",""itemB"":""get sick"",""categoryA"":""physiological"",""categoryB"":""physiological"",""attention_check"":false,""correct_response"":null}","{""itemA"":""feel scared"",""itemB"":""kick something"",""categoryA"":""physiological"",""categoryB"":""physical"",""attention_check"":false,""correct_response"":null}","{""itemA"":""feel scared"",""itemB"":""sit down"",""categoryA"":""physiological"",""categoryB"":""physical"",""attention_check"":false,""correct_response"":null}","{""itemA"":""feel scared"",""itemB"":""become hungry"",""categoryA"":""physiological"",""categoryB"":""physiological"",""attention_check"":false,""correct_response"":null}","{""itemA"":""feel scared"",""itemB"":""hear something"",""categoryA"":""physiological"",""categoryB"":""cognitive"",""attention_check"":false,""correct_response"":null}","{""itemA"":""feel scared"",""itemB"":""get tired"",""categoryA"":""physiological"",""categoryB"":""physiological"",""attention_check"":false,""correct_response"":null}","{""itemA"":null,""itemB"":null,""categoryA"":null,""categoryB"":null,""attention_check"":true,""correct_response"":75}","{""itemA"":""feel scared"",""itemB"":""reach for something"",""categoryA"":""physiological"",""categoryB"":""physical"",""attention_check"":false,""correct_response"":null}","{""itemA"":""feel scared"",""itemB"":""experience pain"",""categoryA"":""physiological"",""categoryB"":""physiological"",""attention_check"":false,""correct_response"":null}","{""itemA"":""feel scared"",""itemB"":""feel scared"",""categoryA"":""physiological"",""categoryB"":""physiological"",""attention_check"":false,""correct_response"":null}","[0,1,2,3,4,5,6,7,8,9,10,11,12,13,14,15]","{""itemA"":""feel scared"",""itemB"":""take a walk"",""categoryA"":""physiological"",""categoryB"":""physical"",""attention_check"":false,""correct_response"":null}","","","","","","","",""
"","","","","","survey-slider","12","null","913477","D6096ADB14F042928364519E4EB8929C","b41c007e-c148-4822-9f96-567e640f4c32","c9908d3c-c6c0-4ff0-8197-ad6b853728e6","","103763.80000019073","","{""Q0"":""98"",""Q1"":""75"",""Q2"":""76"",""Q3"":""100"",""Q4"":""75"",""Q5"":""26"",""Q6"":""25"",""Q7"":""76"",""Q8"":""75"",""Q9"":""26"",""Q10"":""76"",""Q11"":""26"",""Q12"":""100"",""Q13"":""92"",""Q14"":""75""}","","{""itemA"":""hear something"",""itemB"":""think about something"",""categoryA"":""cognitive"",""categoryB"":""cognitive"",""attention_check"":false,""correct_response"":null}","{""itemA"":""hear something"",""itemB"":""experience pain"",""categoryA"":""cognitive"",""categoryB"":""physiological"",""attention_check"":false,""correct_response"":null}","{""itemA"":""hear something"",""itemB"":""feel scared"",""categoryA"":""cognitive"",""categoryB"":""physiological"",""attention_check"":false,""correct_response"":null}","{""itemA"":""hear something"",""itemB"":""hear something"",""categoryA"":""cognitive"",""categoryB"":""cognitive"",""attention_check"":false,""correct_response"":null}","{""itemA"":""hear something"",""itemB"":""choose what to do"",""categoryA"":""cognitive"",""categoryB"":""cognitive"",""attention_check"":false,""correct_response"":null}","{""itemA"":""hear something"",""itemB"":""become hungry"",""categoryA"":""cognitive"",""categoryB"":""physiological"",""attention_check"":false,""correct_response"":null}","{""itemA"":""hear something"",""itemB"":""get sick"",""categoryA"":""cognitive"",""categoryB"":""physiological"",""attention_check"":false,""correct_response"":null}","{""itemA"":""hear something"",""itemB"":""reach for something"",""categoryA"":""cognitive"",""categoryB"":""physical"",""attention_check"":false,""correct_response"":null}","{""itemA"":""hear something"",""itemB"":""take a walk"",""categoryA"":""cognitive"",""categoryB"":""physical"",""attention_check"":false,""correct_response"":null}","{""itemA"":""hear something"",""itemB"":""kick something"",""categoryA"":""cognitive"",""categoryB"":""physical"",""attention_check"":false,""correct_response"":null}","{""itemA"":""hear something"",""itemB"":""jump up and down"",""categoryA"":""cognitive"",""categoryB"":""physical"",""attention_check"":false,""correct_response"":null}","{""itemA"":""hear something"",""itemB"":""sit down"",""categoryA"":""cognitive"",""categoryB"":""physical"",""attention_check"":false,""correct_response"":null}","{""itemA"":""hear something"",""itemB"":""remember something"",""categoryA"":""cognitive"",""categoryB"":""cognitive"",""attention_check"":false,""correct_response"":null}","{""itemA"":""hear something"",""itemB"":""see something"",""categoryA"":""cognitive"",""categoryB"":""cognitive"",""attention_check"":false,""correct_response"":null}","{""itemA"":""hear something"",""itemB"":""get tired"",""categoryA"":""cognitive"",""categoryB"":""physiological"",""attention_check"":false,""correct_response"":null}","[0,1,2,3,4,5,6,7,8,9,10,11,12,13,14]","","","","","","","","",""
"","","","","","survey-slider","13","null","1013102","D6096ADB14F042928364519E4EB8929C","b41c007e-c148-4822-9f96-567e640f4c32","c9908d3c-c6c0-4ff0-8197-ad6b853728e6","","99621.19999980927","","{""Q0"":""0"",""Q1"":""100"",""Q2"":""74"",""Q3"":""0"",""Q4"":""100"",""Q5"":""75"",""Q6"":""75"",""Q7"":""50"",""Q8"":""100"",""Q9"":""100"",""Q10"":""100"",""Q11"":""75"",""Q12"":""75"",""Q13"":""76"",""Q14"":""98"",""Q15"":""75""}","","{""itemA"":null,""itemB"":null,""categoryA"":null,""categoryB"":null,""attention_check"":true,""correct_response"":null}","{""itemA"":""take a walk"",""itemB"":""become hungry"",""categoryA"":""physical"",""categoryB"":""physiological"",""attention_check"":false,""correct_response"":null}","{""itemA"":""take a walk"",""itemB"":""kick something"",""categoryA"":""physical"",""categoryB"":""physical"",""attention_check"":false,""correct_response"":null}","{""itemA"":""take a walk"",""itemB"":""jump up and down"",""categoryA"":""physical"",""categoryB"":""physical"",""attention_check"":false,""correct_response"":null}","{""itemA"":""take a walk"",""itemB"":""think about something"",""categoryA"":""physical"",""categoryB"":""cognitive"",""attention_check"":false,""correct_response"":null}","{""itemA"":""take a walk"",""itemB"":""experience pain"",""categoryA"":""physical"",""categoryB"":""physiological"",""attention_check"":false,""correct_response"":null}","{""itemA"":""take a walk"",""itemB"":""get sick"",""categoryA"":""physical"",""categoryB"":""physiological"",""attention_check"":false,""correct_response"":null}","{""itemA"":""take a walk"",""itemB"":""reach for something"",""categoryA"":""physical"",""categoryB"":""physical"",""attention_check"":false,""correct_response"":null}","{""itemA"":""take a walk"",""itemB"":""get tired"",""categoryA"":""physical"",""categoryB"":""physiological"",""attention_check"":false,""correct_response"":null}","{""itemA"":""take a walk"",""itemB"":""sit down"",""categoryA"":""physical"",""categoryB"":""physical"",""attention_check"":false,""correct_response"":null}","{""itemA"":""take a walk"",""itemB"":""take a walk"",""categoryA"":""physical"",""categoryB"":""physical"",""attention_check"":false,""correct_response"":null}","{""itemA"":""take a walk"",""itemB"":""see something"",""categoryA"":""physical"",""categoryB"":""cognitive"",""attention_check"":false,""correct_response"":null}","{""itemA"":""take a walk"",""itemB"":""hear something"",""categoryA"":""physical"",""categoryB"":""cognitive"",""attention_check"":false,""correct_response"":null}","{""itemA"":""take a walk"",""itemB"":""choose what to do"",""categoryA"":""physical"",""categoryB"":""cognitive"",""attention_check"":false,""correct_response"":null}","{""itemA"":""take a walk"",""itemB"":""remember something"",""categoryA"":""physical"",""categoryB"":""cognitive"",""attention_check"":false,""correct_response"":null}","[0,1,2,3,4,5,6,7,8,9,10,11,12,13,14,15]","{""itemA"":""take a walk"",""itemB"":""feel scared"",""categoryA"":""physical"",""categoryB"":""physiological"",""attention_check"":false,""correct_response"":null}","","","","","","","",""
"","","","","","survey-slider","14","null","1083694","D6096ADB14F042928364519E4EB8929C","b41c007e-c148-4822-9f96-567e640f4c32","c9908d3c-c6c0-4ff0-8197-ad6b853728e6","","70585.90000009537","","{""Q0"":""100"",""Q1"":""100"",""Q2"":""100"",""Q3"":""77"",""Q4"":""86"",""Q5"":""75"",""Q6"":""2"",""Q7"":""100"",""Q8"":""75"",""Q9"":""75"",""Q10"":""87"",""Q11"":""100"",""Q12"":""26"",""Q13"":""100"",""Q14"":""76""}","","{""itemA"":""think about something"",""itemB"":""see something"",""categoryA"":""cognitive"",""categoryB"":""cognitive"",""attention_check"":false,""correct_response"":null}","{""itemA"":""think about something"",""itemB"":""take a walk"",""categoryA"":""cognitive"",""categoryB"":""physical"",""attention_check"":false,""correct_response"":null}","{""itemA"":""think about something"",""itemB"":""think about something"",""categoryA"":""cognitive"",""categoryB"":""cognitive"",""attention_check"":false,""correct_response"":null}","{""itemA"":""think about something"",""itemB"":""get tired"",""categoryA"":""cognitive"",""categoryB"":""physiological"",""attention_check"":false,""correct_response"":null}","{""itemA"":""think about something"",""itemB"":""hear something"",""categoryA"":""cognitive"",""categoryB"":""cognitive"",""attention_check"":false,""correct_response"":null}","{""itemA"":""think about something"",""itemB"":""choose what to do"",""categoryA"":""cognitive"",""categoryB"":""cognitive"",""attention_check"":false,""correct_response"":null}","{""itemA"":""think about something"",""itemB"":""kick something"",""categoryA"":""cognitive"",""categoryB"":""physical"",""attention_check"":false,""correct_response"":null}","{""itemA"":""think about something"",""itemB"":""remember something"",""categoryA"":""cognitive"",""categoryB"":""cognitive"",""attention_check"":false,""correct_response"":null}","{""itemA"":""think about something"",""itemB"":""jump up and down"",""categoryA"":""cognitive"",""categoryB"":""physical"",""attention_check"":false,""correct_response"":null}","{""itemA"":""think about something"",""itemB"":""experience pain"",""categoryA"":""cognitive"",""categoryB"":""physiological"",""attention_check"":false,""correct_response"":null}","{""itemA"":""think about something"",""itemB"":""reach for something"",""categoryA"":""cognitive"",""categoryB"":""physical"",""attention_check"":false,""correct_response"":null}","{""itemA"":""think about something"",""itemB"":""become hungry"",""categoryA"":""cognitive"",""categoryB"":""physiological"",""attention_check"":false,""correct_response"":null}","{""itemA"":""think about something"",""itemB"":""sit down"",""categoryA"":""cognitive"",""categoryB"":""physical"",""attention_check"":false,""correct_response"":null}","{""itemA"":""think about something"",""itemB"":""feel scared"",""categoryA"":""cognitive"",""categoryB"":""physiological"",""attention_check"":false,""correct_response"":null}","{""itemA"":""think about something"",""itemB"":""get sick"",""categoryA"":""cognitive"",""categoryB"":""physiological"",""attention_check"":false,""correct_response"":null}","[0,1,2,3,4,5,6,7,8,9,10,11,12,13,14]","","","","","","","","",""
"","","","","","survey-slider","15","null","1181475","D6096ADB14F042928364519E4EB8929C","b41c007e-c148-4822-9f96-567e640f4c32","c9908d3c-c6c0-4ff0-8197-ad6b853728e6","","97803.59999990463","","{""Q0"":""25"",""Q1"":""0"",""Q2"":""11"",""Q3"":""76"",""Q4"":""50"",""Q5"":""100"",""Q6"":""90"",""Q7"":""25"",""Q8"":""88"",""Q9"":""88"",""Q10"":""0"",""Q11"":""26"",""Q12"":""75"",""Q13"":""75"",""Q14"":""51""}","","{""itemA"":""sit down"",""itemB"":""reach for something"",""categoryA"":""physical"",""categoryB"":""physical"",""attention_check"":false,""correct_response"":null}","{""itemA"":""sit down"",""itemB"":""jump up and down"",""categoryA"":""physical"",""categoryB"":""physical"",""attention_check"":false,""correct_response"":null}","{""itemA"":""sit down"",""itemB"":""feel scared"",""categoryA"":""physical"",""categoryB"":""physiological"",""attention_check"":false,""correct_response"":null}","{""itemA"":""sit down"",""itemB"":""hear something"",""categoryA"":""physical"",""categoryB"":""cognitive"",""attention_check"":false,""correct_response"":null}","{""itemA"":""sit down"",""itemB"":""see something"",""categoryA"":""physical"",""categoryB"":""cognitive"",""attention_check"":false,""correct_response"":null}","{""itemA"":""sit down"",""itemB"":""sit down"",""categoryA"":""physical"",""categoryB"":""physical"",""attention_check"":false,""correct_response"":null}","{""itemA"":""sit down"",""itemB"":""become hungry"",""categoryA"":""physical"",""categoryB"":""physiological"",""attention_check"":false,""correct_response"":null}","{""itemA"":""sit down"",""itemB"":""take a walk"",""categoryA"":""physical"",""categoryB"":""physical"",""attention_check"":false,""correct_response"":null}","{""itemA"":""sit down"",""itemB"":""remember something"",""categoryA"":""physical"",""categoryB"":""cognitive"",""attention_check"":false,""correct_response"":null}","{""itemA"":""sit down"",""itemB"":""think about something"",""categoryA"":""physical"",""categoryB"":""cognitive"",""attention_check"":false,""correct_response"":null}","{""itemA"":""sit down"",""itemB"":""kick something"",""categoryA"":""physical"",""categoryB"":""physical"",""attention_check"":false,""correct_response"":null}","{""itemA"":""sit down"",""itemB"":""get tired"",""categoryA"":""physical"",""categoryB"":""physiological"",""attention_check"":false,""correct_response"":null}","{""itemA"":""sit down"",""itemB"":""choose what to do"",""categoryA"":""physical"",""categoryB"":""cognitive"",""attention_check"":false,""correct_response"":null}","{""itemA"":""sit down"",""itemB"":""get sick"",""categoryA"":""physical"",""categoryB"":""physiological"",""attention_check"":false,""correct_response"":null}","{""itemA"":""sit down"",""itemB"":""experience pain"",""categoryA"":""physical"",""categoryB"":""physiological"",""attention_check"":false,""correct_response"":null}","[0,1,2,3,4,5,6,7,8,9,10,11,12,13,14]","","","","","","","","",""
"","","","","","survey-slider","16","null","1251567","D6096ADB14F042928364519E4EB8929C","b41c007e-c148-4822-9f96-567e640f4c32","c9908d3c-c6c0-4ff0-8197-ad6b853728e6","","70086.5","","{""Q0"":""100"",""Q1"":""76"",""Q2"":""87"",""Q3"":""84"",""Q4"":""99"",""Q5"":""51"",""Q6"":""89"",""Q7"":""97"",""Q8"":""99"",""Q9"":""99"",""Q10"":""76"",""Q11"":""100"",""Q12"":""74"",""Q13"":""100"",""Q14"":""100"",""Q15"":""99""}","","{""itemA"":""experience pain"",""itemB"":""experience pain"",""categoryA"":""physiological"",""categoryB"":""physiological"",""attention_check"":false,""correct_response"":null}","{""itemA"":""experience pain"",""itemB"":""get tired"",""categoryA"":""physiological"",""categoryB"":""physiological"",""attention_check"":false,""correct_response"":null}","{""itemA"":""experience pain"",""itemB"":""take a walk"",""categoryA"":""physiological"",""categoryB"":""physical"",""attention_check"":false,""correct_response"":null}","{""itemA"":""experience pain"",""itemB"":""kick something"",""categoryA"":""physiological"",""categoryB"":""physical"",""attention_check"":false,""correct_response"":null}","{""itemA"":""experience pain"",""itemB"":""get sick"",""categoryA"":""physiological"",""categoryB"":""physiological"",""attention_check"":false,""correct_response"":null}","{""itemA"":""experience pain"",""itemB"":""choose what to do"",""categoryA"":""physiological"",""categoryB"":""cognitive"",""attention_check"":false,""correct_response"":null}","{""itemA"":""experience pain"",""itemB"":""jump up and down"",""categoryA"":""physiological"",""categoryB"":""physical"",""attention_check"":false,""correct_response"":null}","{""itemA"":""experience pain"",""itemB"":""hear something"",""categoryA"":""physiological"",""categoryB"":""cognitive"",""attention_check"":false,""correct_response"":null}","{""itemA"":""experience pain"",""itemB"":""remember something"",""categoryA"":""physiological"",""categoryB"":""cognitive"",""attention_check"":false,""correct_response"":null}","{""itemA"":""experience pain"",""itemB"":""think about something"",""categoryA"":""physiological"",""categoryB"":""cognitive"",""attention_check"":false,""correct_response"":null}","{""itemA"":""experience pain"",""itemB"":""sit down"",""categoryA"":""physiological"",""categoryB"":""physical"",""attention_check"":false,""correct_response"":null}","{""itemA"":null,""itemB"":null,""categoryA"":null,""categoryB"":null,""attention_check"":true,""correct_response"":100}","{""itemA"":""experience pain"",""itemB"":""become hungry"",""categoryA"":""physiological"",""categoryB"":""physiological"",""attention_check"":false,""correct_response"":null}","{""itemA"":""experience pain"",""itemB"":""reach for something"",""categoryA"":""physiological"",""categoryB"":""physical"",""attention_check"":false,""correct_response"":null}","{""itemA"":""experience pain"",""itemB"":""see something"",""categoryA"":""physiological"",""categoryB"":""cognitive"",""attention_check"":false,""correct_response"":null}","[0,1,2,3,4,5,6,7,8,9,10,11,12,13,14,15]","{""itemA"":""experience pain"",""itemB"":""feel scared"",""categoryA"":""physiological"",""categoryB"":""physiological"",""attention_check"":false,""correct_response"":null}","","","","","","","",""
"","","","","","survey-slider","17","null","1304857","D6096ADB14F042928364519E4EB8929C","b41c007e-c148-4822-9f96-567e640f4c32","c9908d3c-c6c0-4ff0-8197-ad6b853728e6","","53285.10000038147","","{""Q0"":""8"",""Q1"":""100"",""Q2"":""87"",""Q3"":""75"",""Q4"":""93"",""Q5"":""25"",""Q6"":""88"",""Q7"":""76"",""Q8"":""25"",""Q9"":""92"",""Q10"":""100"",""Q11"":""100"",""Q12"":""2"",""Q13"":""76"",""Q14"":""99""}","","{""itemA"":""get tired"",""itemB"":""kick something"",""categoryA"":""physiological"",""categoryB"":""physical"",""attention_check"":false,""correct_response"":null}","{""itemA"":""get tired"",""itemB"":""experience pain"",""categoryA"":""physiological"",""categoryB"":""physiological"",""attention_check"":false,""correct_response"":null}","{""itemA"":""get tired"",""itemB"":""think about something"",""categoryA"":""physiological"",""categoryB"":""cognitive"",""attention_check"":false,""correct_response"":null}","{""itemA"":""get tired"",""itemB"":""take a walk"",""categoryA"":""physiological"",""categoryB"":""physical"",""attention_check"":false,""correct_response"":null}","{""itemA"":""get tired"",""itemB"":""remember something"",""categoryA"":""physiological"",""categoryB"":""cognitive"",""attention_check"":false,""correct_response"":null}","{""itemA"":""get tired"",""itemB"":""feel scared"",""categoryA"":""physiological"",""categoryB"":""physiological"",""attention_check"":false,""correct_response"":null}","{""itemA"":""get tired"",""itemB"":""choose what to do"",""categoryA"":""physiological"",""categoryB"":""cognitive"",""attention_check"":false,""correct_response"":null}","{""itemA"":""get tired"",""itemB"":""get sick"",""categoryA"":""physiological"",""categoryB"":""physiological"",""attention_check"":false,""correct_response"":null}","{""itemA"":""get tired"",""itemB"":""reach for something"",""categoryA"":""physiological"",""categoryB"":""physical"",""attention_check"":false,""correct_response"":null}","{""itemA"":""get tired"",""itemB"":""hear something"",""categoryA"":""physiological"",""categoryB"":""cognitive"",""attention_check"":false,""correct_response"":null}","{""itemA"":""get tired"",""itemB"":""get tired"",""categoryA"":""physiological"",""categoryB"":""physiological"",""attention_check"":false,""correct_response"":null}","{""itemA"":""get tired"",""itemB"":""sit down"",""categoryA"":""physiological"",""categoryB"":""physical"",""attention_check"":false,""correct_response"":null}","{""itemA"":""get tired"",""itemB"":""jump up and down"",""categoryA"":""physiological"",""categoryB"":""physical"",""attention_check"":false,""correct_response"":null}","{""itemA"":""get tired"",""itemB"":""see something"",""categoryA"":""physiological"",""categoryB"":""cognitive"",""attention_check"":false,""correct_response"":null}","{""itemA"":""get tired"",""itemB"":""become hungry"",""categoryA"":""physiological"",""categoryB"":""physiological"",""attention_check"":false,""correct_response"":null}","[0,1,2,3,4,5,6,7,8,9,10,11,12,13,14]","","","","","","","","",""
"","","","","","survey-slider","18","null","1348213","D6096ADB14F042928364519E4EB8929C","b41c007e-c148-4822-9f96-567e640f4c32","c9908d3c-c6c0-4ff0-8197-ad6b853728e6","","43351.59999990463","","{""Q0"":""99"",""Q1"":""98"",""Q2"":""2"",""Q3"":""5"",""Q4"":""100"",""Q5"":""90"",""Q6"":""100"",""Q7"":""26"",""Q8"":""25"",""Q9"":""99"",""Q10"":""99"",""Q11"":""76"",""Q12"":""25"",""Q13"":""74"",""Q14"":""99""}","","{""itemA"":""become hungry"",""itemB"":""choose what to do"",""categoryA"":""physiological"",""categoryB"":""cognitive"",""attention_check"":false,""correct_response"":null}","{""itemA"":""become hungry"",""itemB"":""get sick"",""categoryA"":""physiological"",""categoryB"":""physiological"",""attention_check"":false,""correct_response"":null}","{""itemA"":""become hungry"",""itemB"":""jump up and down"",""categoryA"":""physiological"",""categoryB"":""physical"",""attention_check"":false,""correct_response"":null}","{""itemA"":""become hungry"",""itemB"":""kick something"",""categoryA"":""physiological"",""categoryB"":""physical"",""attention_check"":false,""correct_response"":null}","{""itemA"":""become hungry"",""itemB"":""get tired"",""categoryA"":""physiological"",""categoryB"":""physiological"",""attention_check"":false,""correct_response"":null}","{""itemA"":""become hungry"",""itemB"":""remember something"",""categoryA"":""physiological"",""categoryB"":""cognitive"",""attention_check"":false,""correct_response"":null}","{""itemA"":""become hungry"",""itemB"":""become hungry"",""categoryA"":""physiological"",""categoryB"":""physiological"",""attention_check"":false,""correct_response"":null}","{""itemA"":""become hungry"",""itemB"":""take a walk"",""categoryA"":""physiological"",""categoryB"":""physical"",""attention_check"":false,""correct_response"":null}","{""itemA"":""become hungry"",""itemB"":""feel scared"",""categoryA"":""physiological"",""categoryB"":""physiological"",""attention_check"":false,""correct_response"":null}","{""itemA"":""become hungry"",""itemB"":""think about something"",""categoryA"":""physiological"",""categoryB"":""cognitive"",""attention_check"":false,""correct_response"":null}","{""itemA"":""become hungry"",""itemB"":""reach for something"",""categoryA"":""physiological"",""categoryB"":""physical"",""attention_check"":false,""correct_response"":null}","{""itemA"":""become hungry"",""itemB"":""hear something"",""categoryA"":""physiological"",""categoryB"":""cognitive"",""attention_check"":false,""correct_response"":null}","{""itemA"":""become hungry"",""itemB"":""sit down"",""categoryA"":""physiological"",""categoryB"":""physical"",""attention_check"":false,""correct_response"":null}","{""itemA"":""become hungry"",""itemB"":""experience pain"",""categoryA"":""physiological"",""categoryB"":""physiological"",""attention_check"":false,""correct_response"":null}","{""itemA"":""become hungry"",""itemB"":""see something"",""categoryA"":""physiological"",""categoryB"":""cognitive"",""attention_check"":false,""correct_response"":null}","[0,1,2,3,4,5,6,7,8,9,10,11,12,13,14]","","","","","","","","",""
"","","","","","instructions","19","2.0.0","1360717","D6096ADB14F042928364519E4EB8929C","b41c007e-c148-4822-9f96-567e640f4c32","c9908d3c-c6c0-4ff0-8197-ad6b853728e6","","12502","","","[{""page_index"":0,""viewing_time"":12501}]","","","","","","","","","","","","","","","","","","","","","","","","",""
"","","","","","video-button-response","20","2.0.0","1385586","D6096ADB14F042928364519E4EB8929C","b41c007e-c148-4822-9f96-567e640f4c32","c9908d3c-c6c0-4ff0-8197-ad6b853728e6","example_videos","24863","[""video/example-video-circles.mp4""]","0","","","","","","","","","","","","","","","","","","","","","","","","","",""
"","","","","","free-sort","21","2.0.1","1464199","D6096ADB14F042928364519E4EB8929C","b41c007e-c148-4822-9f96-567e640f4c32","c9908d3c-c6c0-4ff0-8197-ad6b853728e6","","78611","","","","","","","","","","","","","","","","","","","","","[{""src"":""images/items-circles/img4.png"",""x"":610.4166666666667,""y"":0},{""src"":""images/items-circles/img3.png"",""x"":-60.41666666666666,""y"":550},{""src"":""images/items-circles/img6.png"",""x"":610.4166666666667,""y"":183.33333333333334},{""src"":""images/items-circles/img10.png"",""x"":-60.41666666666666,""y"":366.6666666666667},{""src"":""images/items-circles/img2.png"",""x"":610.4166666666667,""y"":366.6666666666667},{""src"":""images/items-circles/img15.png"",""x"":-60.41666666666666,""y"":183.33333333333334},{""src"":""images/items-circles/img14.png"",""x"":610.4166666666667,""y"":550},{""src"":""images/items-circles/img13.png"",""x"":-60.41666666666666,""y"":0},{""src"":""images/items-circles/img11.png"",""x"":793.75,""y"":0},{""src"":""images/items-circles/img8.png"",""x"":-243.75,""y"":550},{""src"":""images/items-circles/img7.png"",""x"":793.75,""y"":183.33333333333334},{""src"":""images/items-circles/img5.png"",""x"":-243.75,""y"":366.6666666666667},{""src"":""images/items-circles/img1.png"",""x"":793.75,""y"":366.6666666666667},{""src"":""images/items-circles/img12.png"",""x"":-243.75,""y"":183.33333333333334},{""src"":""images/items-circles/img9.png"",""x"":793.75,""y"":550}]","[{""src"":""images/items-circles/img13.png"",""x"":125,""y"":138},{""src"":""images/items-circles/img13.png"",""x"":125,""y"":174},{""src"":""images/items-circles/img13.png"",""x"":161,""y"":122},{""src"":""images/items-circles/img10.png"",""x"":136,""y"":378},{""src"":""images/items-circles/img12.png"",""x"":159,""y"":58},{""src"":""images/items-circles/img15.png"",""x"":433,""y"":121},{""src"":""images/items-circles/img5.png"",""x"":397,""y"":95},{""src"":""images/items-circles/img15.png"",""x"":433,""y"":183},{""src"":""images/items-circles/img15.png"",""x"":427,""y"":152},{""src"":""images/items-circles/img4.png"",""x"":385,""y"":384},{""src"":""images/items-circles/img5.png"",""x"":430,""y"":391},{""src"":""images/items-circles/img6.png"",""x"":406,""y"":438},{""src"":""images/items-circles/img5.png"",""x"":450,""y"":370},{""src"":""images/items-circles/img2.png"",""x"":139,""y"":435},{""src"":""images/items-circles/img8.png"",""x"":80,""y"":416},{""src"":""images/items-circles/img11.png"",""x"":179,""y"":410},{""src"":""images/items-circles/img1.png"",""x"":263,""y"":257},{""src"":""images/items-circles/img15.png"",""x"":413,""y"":115},{""src"":""images/items-circles/img3.png"",""x"":363,""y"":441},{""src"":""images/items-circles/img6.png"",""x"":442,""y"":439},{""src"":""images/items-circles/img3.png"",""x"":384,""y"":447},{""src"":""images/items-circles/img7.png"",""x"":304,""y"":258},{""src"":""images/items-circles/img14.png"",""x"":292,""y"":299},{""src"":""images/items-circles/img9.png"",""x"":412,""y"":419},{""src"":""images/items-circles/img9.png"",""x"":71,""y"":342}]","[{""src"":""images/items-circles/img4.png"",""x"":384,""y"":383},{""src"":""images/items-circles/img3.png"",""x"":383,""y"":446},{""src"":""images/items-circles/img6.png"",""x"":442,""y"":439},{""src"":""images/items-circles/img10.png"",""x"":136,""y"":377},{""src"":""images/items-circles/img2.png"",""x"":139,""y"":435},{""src"":""images/items-circles/img15.png"",""x"":413,""y"":114},{""src"":""images/items-circles/img14.png"",""x"":291,""y"":298},{""src"":""images/items-circles/img13.png"",""x"":160,""y"":122},{""src"":""images/items-circles/img11.png"",""x"":178,""y"":409},{""src"":""images/items-circles/img8.png"",""x"":80,""y"":416},{""src"":""images/items-circles/img7.png"",""x"":303,""y"":257},{""src"":""images/items-circles/img5.png"",""x"":450,""y"":370},{""src"":""images/items-circles/img1.png"",""x"":263,""y"":257},{""src"":""images/items-circles/img12.png"",""x"":158,""y"":58},{""src"":""images/items-circles/img9.png"",""x"":70,""y"":342}]","","","","",""
"","","","","","instructions","22","2.0.0","1466357","D6096ADB14F042928364519E4EB8929C","b41c007e-c148-4822-9f96-567e640f4c32","c9908d3c-c6c0-4ff0-8197-ad6b853728e6","","2156","","","[{""page_index"":0,""viewing_time"":2156}]","","","","","","","","","","","","","","","","","","","","","","","","",""
"","","","","","survey-html-form","23","2.0.0","1545429","D6096ADB14F042928364519E4EB8929C","b41c007e-c148-4822-9f96-567e640f4c32","c9908d3c-c6c0-4ff0-8197-ad6b853728e6","demographics_survey","79070","","{""feedback"":""I mainly thought about whether the first action could actually lead to the action that I needed to choose on personally. I thought all the instructions were clear and easy to understand, thank you."",""age"":""26"",""gender"":""Female"",""other_gender"":"""",""race"":""Asian"",""other_race"":"""",""ethnicity"":""Non-Hispanic""}","","","","","","","","","","","","","","","","","","","","","","I mainly thought about whether the first action could actually lead to the action that I needed to choose on personally. I thought all the instructions were clear and easy to understand, thank you.","26","Non-Hispanic","Female","Asian"
