"success","timeout","failed_images","failed_audio","failed_video","trial_type","trial_index","plugin_version","time_elapsed","mturk_participant_id","mturk_assignment_id","mturk_project_id","trial_id","rt","stimulus","response","view_history","init_locations","moves","final_locations","0","1","2","3","4","5","6","7","8","9","10","11","12","13","14","question_order","15","feedback","age","ethnicity","gender","race"
"true","false","[]","[]","[]","preload","0","2.0.0","1298","BA2BCA7CCB1C4030859B5BC1E915D44D","9f1e043e-e82e-4db8-9ae1-0e86ca4c2346","c9908d3c-c6c0-4ff0-8197-ad6b853728e6","","","","","","","","","","","","","","","","","","","","","","","","","","","","","",""
"","","","","","html-button-response","1","2.0.0","11639","BA2BCA7CCB1C4030859B5BC1E915D44D","9f1e043e-e82e-4db8-9ae1-0e86ca4c2346","c9908d3c-c6c0-4ff0-8197-ad6b853728e6","consent","10339","<p><b>Consent Form</b></p> <div style=""text-align:left;background-color:lightblue; padding:2vw; max-width:80vw;""><p><b>Purpose:</b> The purpose of this study is to understand how people think about the physical and social world.</p><p><b>Procedures:</b> In this study, you will watch videos, read sentences, or see pictures, and answer simple questions about them. This study should take approximately 30 minutes</p><p><b>Participation:</b> Participation in this study is voluntary. If you decide to join now, you can change your mind later. </p><p><b>Payment:</b> You will be paid $15.00/hour for participating in this study. Given the estimated duration of 30 minutes, your payment will amount to $7.50.</p><p><b>Risks and benefits:</b> There are no risks associated with participating in this study. There are no direct benefits associated with participating in this study. </p><p><b>Use of data by study researchers:</b> The research team led by Shari Liu at JHU will have access to your answers. </p><p><b>Publication of results:</b> The results of the research may be presented at scientific meetings or published in scientific journals. Your individual responses may be published. We will never publish your name, the date that you participated, and any other information that could be used to identify you. </p><p><b>Researcher contact information:</b> This study is run by Dr. Shari Liu at JHU. If you have any questions or concerns about this study, or in the very unlikely event of a research-related injury, please contact sliu199@jhu.edu. </p><p><b>Research rights information:</b> If you have questions about your rights as a research participant or feel that you have not been treated fairly, please call the Homewood Institutional Review Board at Johns Hopkins University at (410) 516-6580. If you have any questions or issues completing the survey, please email Shari Liu at sliu199@jhu.edu. </p> </div><p> Do you consent to participate? </p>","0","","","","","","","","","","","","","","","","","","","","","","","","","",""
"","","","","","instructions","2","2.0.0","18224","BA2BCA7CCB1C4030859B5BC1E915D44D","9f1e043e-e82e-4db8-9ae1-0e86ca4c2346","c9908d3c-c6c0-4ff0-8197-ad6b853728e6","","6584","","","[{""page_index"":0,""viewing_time"":6584}]","","","","","","","","","","","","","","","","","","","","","","","","",""
"","","","","","instructions","3","2.0.0","125844","BA2BCA7CCB1C4030859B5BC1E915D44D","9f1e043e-e82e-4db8-9ae1-0e86ca4c2346","c9908d3c-c6c0-4ff0-8197-ad6b853728e6","","107619","","","[{""page_index"":0,""viewing_time"":107619}]","","","","","","","","","","","","","","","","","","","","","","","","",""
"","","","","","video-button-response","4","2.0.0","150944","BA2BCA7CCB1C4030859B5BC1E915D44D","9f1e043e-e82e-4db8-9ae1-0e86ca4c2346","c9908d3c-c6c0-4ff0-8197-ad6b853728e6","example_videos","25088","[""video/example-video-circles.mp4""]","0","","","","","","","","","","","","","","","","","","","","","","","","","",""
"","","","","","free-sort","5","2.0.1","296744","BA2BCA7CCB1C4030859B5BC1E915D44D","9f1e043e-e82e-4db8-9ae1-0e86ca4c2346","c9908d3c-c6c0-4ff0-8197-ad6b853728e6","","145798","","","","[{""src"":""images/items-circles/img8.png"",""x"":610.4166666666667,""y"":0},{""src"":""images/items-circles/img10.png"",""x"":-60.41666666666666,""y"":550},{""src"":""images/items-circles/img4.png"",""x"":610.4166666666667,""y"":183.33333333333334},{""src"":""images/items-circles/img15.png"",""x"":-60.41666666666666,""y"":366.6666666666667},{""src"":""images/items-circles/img3.png"",""x"":610.4166666666667,""y"":366.6666666666667},{""src"":""images/items-circles/img14.png"",""x"":-60.41666666666666,""y"":183.33333333333334},{""src"":""images/items-circles/img5.png"",""x"":610.4166666666667,""y"":550},{""src"":""images/items-circles/img11.png"",""x"":-60.41666666666666,""y"":0},{""src"":""images/items-circles/img2.png"",""x"":793.75,""y"":0},{""src"":""images/items-circles/img9.png"",""x"":-243.75,""y"":550},{""src"":""images/items-circles/img6.png"",""x"":793.75,""y"":183.33333333333334},{""src"":""images/items-circles/img12.png"",""x"":-243.75,""y"":366.6666666666667},{""src"":""images/items-circles/img7.png"",""x"":793.75,""y"":366.6666666666667},{""src"":""images/items-circles/img13.png"",""x"":-243.75,""y"":183.33333333333334},{""src"":""images/items-circles/img1.png"",""x"":793.75,""y"":550}]","[{""src"":""images/items-circles/img13.png"",""x"":112,""y"":97},{""src"":""images/items-circles/img4.png"",""x"":446,""y"":150},{""src"":""images/items-circles/img8.png"",""x"":86,""y"":373},{""src"":""images/items-circles/img15.png"",""x"":474,""y"":394},{""src"":""images/items-circles/img12.png"",""x"":200,""y"":62},{""src"":""images/items-circles/img9.png"",""x"":126,""y"":446},{""src"":""images/items-circles/img3.png"",""x"":493,""y"":203},{""src"":""images/items-circles/img6.png"",""x"":315,""y"":484},{""src"":""images/items-circles/img6.png"",""x"":433,""y"":448},{""src"":""images/items-circles/img5.png"",""x"":397,""y"":503},{""src"":""images/items-circles/img2.png"",""x"":183,""y"":126},{""src"":""images/items-circles/img14.png"",""x"":102,""y"":177},{""src"":""images/items-circles/img11.png"",""x"":162,""y"":397},{""src"":""images/items-circles/img10.png"",""x"":143,""y"":349},{""src"":""images/items-circles/img7.png"",""x"":416,""y"":225},{""src"":""images/items-circles/img1.png"",""x"":161,""y"":202}]","[{""src"":""images/items-circles/img8.png"",""x"":86,""y"":373},{""src"":""images/items-circles/img10.png"",""x"":143,""y"":348},{""src"":""images/items-circles/img4.png"",""x"":445,""y"":150},{""src"":""images/items-circles/img15.png"",""x"":474,""y"":393},{""src"":""images/items-circles/img3.png"",""x"":493,""y"":203},{""src"":""images/items-circles/img14.png"",""x"":102,""y"":177},{""src"":""images/items-circles/img5.png"",""x"":396,""y"":503},{""src"":""images/items-circles/img11.png"",""x"":162,""y"":397},{""src"":""images/items-circles/img2.png"",""x"":183,""y"":125},{""src"":""images/items-circles/img9.png"",""x"":126,""y"":446},{""src"":""images/items-circles/img6.png"",""x"":433,""y"":448},{""src"":""images/items-circles/img12.png"",""x"":199,""y"":61},{""src"":""images/items-circles/img7.png"",""x"":416,""y"":225},{""src"":""images/items-circles/img13.png"",""x"":112,""y"":96},{""src"":""images/items-circles/img1.png"",""x"":160,""y"":201}]","","","","","","","","","","","","","","","","","","","","","",""
"","","","","","instructions","6","2.0.0","413476","BA2BCA7CCB1C4030859B5BC1E915D44D","9f1e043e-e82e-4db8-9ae1-0e86ca4c2346","c9908d3c-c6c0-4ff0-8197-ad6b853728e6","","116730","","","[{""page_index"":0,""viewing_time"":116730}]","","","","","","","","","","","","","","","","","","","","","","","","",""
"","","","","","survey-slider","7","null","527078","BA2BCA7CCB1C4030859B5BC1E915D44D","9f1e043e-e82e-4db8-9ae1-0e86ca4c2346","c9908d3c-c6c0-4ff0-8197-ad6b853728e6","","113593.80000019073","","{""Q0"":""100"",""Q1"":""64"",""Q2"":""71"",""Q3"":""7"",""Q4"":""56"",""Q5"":""0"",""Q6"":""1"",""Q7"":""0"",""Q8"":""0"",""Q9"":""81"",""Q10"":""0"",""Q11"":""0"",""Q12"":""60"",""Q13"":""100"",""Q14"":""5""}","","","","","{""itemA"":""jump up and down"",""itemB"":""jump up and down"",""categoryA"":""physical"",""categoryB"":""physical"",""attention_check"":false,""correct_response"":null}","{""itemA"":""jump up and down"",""itemB"":""see something"",""categoryA"":""physical"",""categoryB"":""cognitive"",""attention_check"":false,""correct_response"":null}","{""itemA"":""jump up and down"",""itemB"":""choose what to do"",""categoryA"":""physical"",""categoryB"":""cognitive"",""attention_check"":false,""correct_response"":null}","{""itemA"":""jump up and down"",""itemB"":""sit down"",""categoryA"":""physical"",""categoryB"":""physical"",""attention_check"":false,""correct_response"":null}","{""itemA"":""jump up and down"",""itemB"":""reach for something"",""categoryA"":""physical"",""categoryB"":""physical"",""attention_check"":false,""correct_response"":null}","{""itemA"":""jump up and down"",""itemB"":""kick something"",""categoryA"":""physical"",""categoryB"":""physical"",""attention_check"":false,""correct_response"":null}","{""itemA"":""jump up and down"",""itemB"":""think about something"",""categoryA"":""physical"",""categoryB"":""cognitive"",""attention_check"":false,""correct_response"":null}","{""itemA"":""jump up and down"",""itemB"":""take a walk"",""categoryA"":""physical"",""categoryB"":""physical"",""attention_check"":false,""correct_response"":null}","{""itemA"":""jump up and down"",""itemB"":""hear something"",""categoryA"":""physical"",""categoryB"":""cognitive"",""attention_check"":false,""correct_response"":null}","{""itemA"":""jump up and down"",""itemB"":""experience pain"",""categoryA"":""physical"",""categoryB"":""physiological"",""attention_check"":false,""correct_response"":null}","{""itemA"":""jump up and down"",""itemB"":""feel scared"",""categoryA"":""physical"",""categoryB"":""physiological"",""attention_check"":false,""correct_response"":null}","{""itemA"":""jump up and down"",""itemB"":""remember something"",""categoryA"":""physical"",""categoryB"":""cognitive"",""attention_check"":false,""correct_response"":null}","{""itemA"":""jump up and down"",""itemB"":""become hungry"",""categoryA"":""physical"",""categoryB"":""physiological"",""attention_check"":false,""correct_response"":null}","{""itemA"":""jump up and down"",""itemB"":""get tired"",""categoryA"":""physical"",""categoryB"":""physiological"",""attention_check"":false,""correct_response"":null}","{""itemA"":""jump up and down"",""itemB"":""get sick"",""categoryA"":""physical"",""categoryB"":""physiological"",""attention_check"":false,""correct_response"":null}","[0,1,2,3,4,5,6,7,8,9,10,11,12,13,14]","","","","","",""
"","","","","","survey-slider","8","null","639966","BA2BCA7CCB1C4030859B5BC1E915D44D","9f1e043e-e82e-4db8-9ae1-0e86ca4c2346","c9908d3c-c6c0-4ff0-8197-ad6b853728e6","","112881.89999961853","","{""Q0"":""0"",""Q1"":""7"",""Q2"":""7"",""Q3"":""13"",""Q4"":""4"",""Q5"":""61"",""Q6"":""12"",""Q7"":""0"",""Q8"":""100"",""Q9"":""34"",""Q10"":""43"",""Q11"":""0"",""Q12"":""100"",""Q13"":""17"",""Q14"":""6""}","","","","","{""itemA"":""get tired"",""itemB"":""kick something"",""categoryA"":""physiological"",""categoryB"":""physical"",""attention_check"":false,""correct_response"":null}","{""itemA"":""get tired"",""itemB"":""think about something"",""categoryA"":""physiological"",""categoryB"":""cognitive"",""attention_check"":false,""correct_response"":null}","{""itemA"":""get tired"",""itemB"":""reach for something"",""categoryA"":""physiological"",""categoryB"":""physical"",""attention_check"":false,""correct_response"":null}","{""itemA"":""get tired"",""itemB"":""take a walk"",""categoryA"":""physiological"",""categoryB"":""physical"",""attention_check"":false,""correct_response"":null}","{""itemA"":""get tired"",""itemB"":""experience pain"",""categoryA"":""physiological"",""categoryB"":""physiological"",""attention_check"":false,""correct_response"":null}","{""itemA"":""get tired"",""itemB"":""choose what to do"",""categoryA"":""physiological"",""categoryB"":""cognitive"",""attention_check"":false,""correct_response"":null}","{""itemA"":""get tired"",""itemB"":""feel scared"",""categoryA"":""physiological"",""categoryB"":""physiological"",""attention_check"":false,""correct_response"":null}","{""itemA"":""get tired"",""itemB"":""jump up and down"",""categoryA"":""physiological"",""categoryB"":""physical"",""attention_check"":false,""correct_response"":null}","{""itemA"":""get tired"",""itemB"":""sit down"",""categoryA"":""physiological"",""categoryB"":""physical"",""attention_check"":false,""correct_response"":null}","{""itemA"":""get tired"",""itemB"":""get sick"",""categoryA"":""physiological"",""categoryB"":""physiological"",""attention_check"":false,""correct_response"":null}","{""itemA"":""get tired"",""itemB"":""see something"",""categoryA"":""physiological"",""categoryB"":""cognitive"",""attention_check"":false,""correct_response"":null}","{""itemA"":""get tired"",""itemB"":""remember something"",""categoryA"":""physiological"",""categoryB"":""cognitive"",""attention_check"":false,""correct_response"":null}","{""itemA"":""get tired"",""itemB"":""get tired"",""categoryA"":""physiological"",""categoryB"":""physiological"",""attention_check"":false,""correct_response"":null}","{""itemA"":""get tired"",""itemB"":""hear something"",""categoryA"":""physiological"",""categoryB"":""cognitive"",""attention_check"":false,""correct_response"":null}","{""itemA"":""get tired"",""itemB"":""become hungry"",""categoryA"":""physiological"",""categoryB"":""physiological"",""attention_check"":false,""correct_response"":null}","[0,1,2,3,4,5,6,7,8,9,10,11,12,13,14]","","","","","",""
"","","","","","survey-slider","9","null","746855","BA2BCA7CCB1C4030859B5BC1E915D44D","9f1e043e-e82e-4db8-9ae1-0e86ca4c2346","c9908d3c-c6c0-4ff0-8197-ad6b853728e6","","106885.2999997139","","{""Q0"":""57"",""Q1"":""100"",""Q2"":""1"",""Q3"":""100"",""Q4"":""60"",""Q5"":""7"",""Q6"":""58"",""Q7"":""4"",""Q8"":""0"",""Q9"":""2"",""Q10"":""0"",""Q11"":""19"",""Q12"":""0"",""Q13"":""100"",""Q14"":""41""}","","","","","{""itemA"":""think about something"",""itemB"":""get sick"",""categoryA"":""cognitive"",""categoryB"":""physiological"",""attention_check"":false,""correct_response"":null}","{""itemA"":""think about something"",""itemB"":""think about something"",""categoryA"":""cognitive"",""categoryB"":""cognitive"",""attention_check"":false,""correct_response"":null}","{""itemA"":""think about something"",""itemB"":""sit down"",""categoryA"":""cognitive"",""categoryB"":""physical"",""attention_check"":false,""correct_response"":null}","{""itemA"":""think about something"",""itemB"":""remember something"",""categoryA"":""cognitive"",""categoryB"":""cognitive"",""attention_check"":false,""correct_response"":null}","{""itemA"":""think about something"",""itemB"":""feel scared"",""categoryA"":""cognitive"",""categoryB"":""physiological"",""attention_check"":false,""correct_response"":null}","{""itemA"":""think about something"",""itemB"":""reach for something"",""categoryA"":""cognitive"",""categoryB"":""physical"",""attention_check"":false,""correct_response"":null}","{""itemA"":""think about something"",""itemB"":""get tired"",""categoryA"":""cognitive"",""categoryB"":""physiological"",""attention_check"":false,""correct_response"":null}","{""itemA"":""think about something"",""itemB"":""experience pain"",""categoryA"":""cognitive"",""categoryB"":""physiological"",""attention_check"":false,""correct_response"":null}","{""itemA"":""think about something"",""itemB"":""jump up and down"",""categoryA"":""cognitive"",""categoryB"":""physical"",""attention_check"":false,""correct_response"":null}","{""itemA"":""think about something"",""itemB"":""take a walk"",""categoryA"":""cognitive"",""categoryB"":""physical"",""attention_check"":false,""correct_response"":null}","{""itemA"":""think about something"",""itemB"":""become hungry"",""categoryA"":""cognitive"",""categoryB"":""physiological"",""attention_check"":false,""correct_response"":null}","{""itemA"":""think about something"",""itemB"":""see something"",""categoryA"":""cognitive"",""categoryB"":""cognitive"",""attention_check"":false,""correct_response"":null}","{""itemA"":""think about something"",""itemB"":""hear something"",""categoryA"":""cognitive"",""categoryB"":""cognitive"",""attention_check"":false,""correct_response"":null}","{""itemA"":""think about something"",""itemB"":""choose what to do"",""categoryA"":""cognitive"",""categoryB"":""cognitive"",""attention_check"":false,""correct_response"":null}","{""itemA"":""think about something"",""itemB"":""kick something"",""categoryA"":""cognitive"",""categoryB"":""physical"",""attention_check"":false,""correct_response"":null}","[0,1,2,3,4,5,6,7,8,9,10,11,12,13,14]","","","","","",""
"","","","","","survey-slider","10","null","865311","BA2BCA7CCB1C4030859B5BC1E915D44D","9f1e043e-e82e-4db8-9ae1-0e86ca4c2346","c9908d3c-c6c0-4ff0-8197-ad6b853728e6","","118452.09999990463","","{""Q0"":""95"",""Q1"":""0"",""Q2"":""21"",""Q3"":""7"",""Q4"":""80"",""Q5"":""14"",""Q6"":""0"",""Q7"":""0"",""Q8"":""100"",""Q9"":""12"",""Q10"":""0"",""Q11"":""0"",""Q12"":""0"",""Q13"":""100"",""Q14"":""62"",""Q15"":""18""}","","","","","{""itemA"":""kick something"",""itemB"":""jump up and down"",""categoryA"":""physical"",""categoryB"":""physical"",""attention_check"":false,""correct_response"":null}","{""itemA"":""kick something"",""itemB"":""take a walk"",""categoryA"":""physical"",""categoryB"":""physical"",""attention_check"":false,""correct_response"":null}","{""itemA"":""kick something"",""itemB"":""think about something"",""categoryA"":""physical"",""categoryB"":""cognitive"",""attention_check"":false,""correct_response"":null}","{""itemA"":""kick something"",""itemB"":""feel scared"",""categoryA"":""physical"",""categoryB"":""physiological"",""attention_check"":false,""correct_response"":null}","{""itemA"":""kick something"",""itemB"":""get tired"",""categoryA"":""physical"",""categoryB"":""physiological"",""attention_check"":false,""correct_response"":null}","{""itemA"":""kick something"",""itemB"":""become hungry"",""categoryA"":""physical"",""categoryB"":""physiological"",""attention_check"":false,""correct_response"":null}","{""itemA"":""kick something"",""itemB"":""remember something"",""categoryA"":""physical"",""categoryB"":""cognitive"",""attention_check"":false,""correct_response"":null}","{""itemA"":""kick something"",""itemB"":""see something"",""categoryA"":""physical"",""categoryB"":""cognitive"",""attention_check"":false,""correct_response"":null}","{""itemA"":""kick something"",""itemB"":""kick something"",""categoryA"":""physical"",""categoryB"":""physical"",""attention_check"":false,""correct_response"":null}","{""itemA"":""kick something"",""itemB"":""sit down"",""categoryA"":""physical"",""categoryB"":""physical"",""attention_check"":false,""correct_response"":null}","{""itemA"":null,""itemB"":null,""categoryA"":null,""categoryB"":null,""attention_check"":true,""correct_response"":null}","{""itemA"":""kick something"",""itemB"":""hear something"",""categoryA"":""physical"",""categoryB"":""cognitive"",""attention_check"":false,""correct_response"":null}","{""itemA"":""kick something"",""itemB"":""get sick"",""categoryA"":""physical"",""categoryB"":""physiological"",""attention_check"":false,""correct_response"":null}","{""itemA"":""kick something"",""itemB"":""experience pain"",""categoryA"":""physical"",""categoryB"":""physiological"",""attention_check"":false,""correct_response"":null}","{""itemA"":""kick something"",""itemB"":""choose what to do"",""categoryA"":""physical"",""categoryB"":""cognitive"",""attention_check"":false,""correct_response"":null}","[0,1,2,3,4,5,6,7,8,9,10,11,12,13,14,15]","{""itemA"":""kick something"",""itemB"":""reach for something"",""categoryA"":""physical"",""categoryB"":""physical"",""attention_check"":false,""correct_response"":null}","","","","",""
"","","","","","survey-slider","11","null","974994","BA2BCA7CCB1C4030859B5BC1E915D44D","9f1e043e-e82e-4db8-9ae1-0e86ca4c2346","c9908d3c-c6c0-4ff0-8197-ad6b853728e6","","109679.19999980927","","{""Q0"":""15"",""Q1"":""0"",""Q2"":""21"",""Q3"":""0"",""Q4"":""82"",""Q5"":""92"",""Q6"":""97"",""Q7"":""22"",""Q8"":""100"",""Q9"":""69"",""Q10"":""82"",""Q11"":""0"",""Q12"":""0"",""Q13"":""76"",""Q14"":""18""}","","","","","{""itemA"":""become hungry"",""itemB"":""see something"",""categoryA"":""physiological"",""categoryB"":""cognitive"",""attention_check"":false,""correct_response"":null}","{""itemA"":""become hungry"",""itemB"":""kick something"",""categoryA"":""physiological"",""categoryB"":""physical"",""attention_check"":false,""correct_response"":null}","{""itemA"":""become hungry"",""itemB"":""get sick"",""categoryA"":""physiological"",""categoryB"":""physiological"",""attention_check"":false,""correct_response"":null}","{""itemA"":""become hungry"",""itemB"":""jump up and down"",""categoryA"":""physiological"",""categoryB"":""physical"",""attention_check"":false,""correct_response"":null}","{""itemA"":""become hungry"",""itemB"":""choose what to do"",""categoryA"":""physiological"",""categoryB"":""cognitive"",""attention_check"":false,""correct_response"":null}","{""itemA"":""become hungry"",""itemB"":""reach for something"",""categoryA"":""physiological"",""categoryB"":""physical"",""attention_check"":false,""correct_response"":null}","{""itemA"":""become hungry"",""itemB"":""think about something"",""categoryA"":""physiological"",""categoryB"":""cognitive"",""attention_check"":false,""correct_response"":null}","{""itemA"":""become hungry"",""itemB"":""feel scared"",""categoryA"":""physiological"",""categoryB"":""physiological"",""attention_check"":false,""correct_response"":null}","{""itemA"":""become hungry"",""itemB"":""become hungry"",""categoryA"":""physiological"",""categoryB"":""physiological"",""attention_check"":false,""correct_response"":null}","{""itemA"":""become hungry"",""itemB"":""remember something"",""categoryA"":""physiological"",""categoryB"":""cognitive"",""attention_check"":false,""correct_response"":null}","{""itemA"":""become hungry"",""itemB"":""experience pain"",""categoryA"":""physiological"",""categoryB"":""physiological"",""attention_check"":false,""correct_response"":null}","{""itemA"":""become hungry"",""itemB"":""hear something"",""categoryA"":""physiological"",""categoryB"":""cognitive"",""attention_check"":false,""correct_response"":null}","{""itemA"":""become hungry"",""itemB"":""take a walk"",""categoryA"":""physiological"",""categoryB"":""physical"",""attention_check"":false,""correct_response"":null}","{""itemA"":""become hungry"",""itemB"":""get tired"",""categoryA"":""physiological"",""categoryB"":""physiological"",""attention_check"":false,""correct_response"":null}","{""itemA"":""become hungry"",""itemB"":""sit down"",""categoryA"":""physiological"",""categoryB"":""physical"",""attention_check"":false,""correct_response"":null}","[0,1,2,3,4,5,6,7,8,9,10,11,12,13,14]","","","","","",""
"","","","","","survey-slider","12","null","1507404","BA2BCA7CCB1C4030859B5BC1E915D44D","9f1e043e-e82e-4db8-9ae1-0e86ca4c2346","c9908d3c-c6c0-4ff0-8197-ad6b853728e6","","532406.6000003815","","{""Q0"":""0"",""Q1"":""100"",""Q2"":""78"",""Q3"":""100"",""Q4"":""24"",""Q5"":""100"",""Q6"":""80"",""Q7"":""81"",""Q8"":""100"",""Q9"":""100"",""Q10"":""77"",""Q11"":""1"",""Q12"":""0"",""Q13"":""85"",""Q14"":""0""}","","","","","{""itemA"":""hear something"",""itemB"":""become hungry"",""categoryA"":""cognitive"",""categoryB"":""physiological"",""attention_check"":false,""correct_response"":null}","{""itemA"":""hear something"",""itemB"":""remember something"",""categoryA"":""cognitive"",""categoryB"":""cognitive"",""attention_check"":false,""correct_response"":null}","{""itemA"":""hear something"",""itemB"":""experience pain"",""categoryA"":""cognitive"",""categoryB"":""physiological"",""attention_check"":false,""correct_response"":null}","{""itemA"":""hear something"",""itemB"":""choose what to do"",""categoryA"":""cognitive"",""categoryB"":""cognitive"",""attention_check"":false,""correct_response"":null}","{""itemA"":""hear something"",""itemB"":""take a walk"",""categoryA"":""cognitive"",""categoryB"":""physical"",""attention_check"":false,""correct_response"":null}","{""itemA"":""hear something"",""itemB"":""think about something"",""categoryA"":""cognitive"",""categoryB"":""cognitive"",""attention_check"":false,""correct_response"":null}","{""itemA"":""hear something"",""itemB"":""jump up and down"",""categoryA"":""cognitive"",""categoryB"":""physical"",""attention_check"":false,""correct_response"":null}","{""itemA"":""hear something"",""itemB"":""kick something"",""categoryA"":""cognitive"",""categoryB"":""physical"",""attention_check"":false,""correct_response"":null}","{""itemA"":""hear something"",""itemB"":""feel scared"",""categoryA"":""cognitive"",""categoryB"":""physiological"",""attention_check"":false,""correct_response"":null}","{""itemA"":""hear something"",""itemB"":""hear something"",""categoryA"":""cognitive"",""categoryB"":""cognitive"",""attention_check"":false,""correct_response"":null}","{""itemA"":""hear something"",""itemB"":""sit down"",""categoryA"":""cognitive"",""categoryB"":""physical"",""attention_check"":false,""correct_response"":null}","{""itemA"":""hear something"",""itemB"":""get sick"",""categoryA"":""cognitive"",""categoryB"":""physiological"",""attention_check"":false,""correct_response"":null}","{""itemA"":""hear something"",""itemB"":""see something"",""categoryA"":""cognitive"",""categoryB"":""cognitive"",""attention_check"":false,""correct_response"":null}","{""itemA"":""hear something"",""itemB"":""reach for something"",""categoryA"":""cognitive"",""categoryB"":""physical"",""attention_check"":false,""correct_response"":null}","{""itemA"":""hear something"",""itemB"":""get tired"",""categoryA"":""cognitive"",""categoryB"":""physiological"",""attention_check"":false,""correct_response"":null}","[0,1,2,3,4,5,6,7,8,9,10,11,12,13,14]","","","","","",""
"","","","","","survey-slider","13","null","1594516","BA2BCA7CCB1C4030859B5BC1E915D44D","9f1e043e-e82e-4db8-9ae1-0e86ca4c2346","c9908d3c-c6c0-4ff0-8197-ad6b853728e6","","87105.7999997139","","{""Q0"":""13"",""Q1"":""100"",""Q2"":""4"",""Q3"":""74"",""Q4"":""26"",""Q5"":""59"",""Q6"":""0"",""Q7"":""5"",""Q8"":""85"",""Q9"":""100"",""Q10"":""0"",""Q11"":""1"",""Q12"":""0"",""Q13"":""58"",""Q14"":""57""}","","","","","{""itemA"":""take a walk"",""itemB"":""choose what to do"",""categoryA"":""physical"",""categoryB"":""cognitive"",""attention_check"":false,""correct_response"":null}","{""itemA"":""take a walk"",""itemB"":""take a walk"",""categoryA"":""physical"",""categoryB"":""physical"",""attention_check"":false,""correct_response"":null}","{""itemA"":""take a walk"",""itemB"":""reach for something"",""categoryA"":""physical"",""categoryB"":""physical"",""attention_check"":false,""correct_response"":null}","{""itemA"":""take a walk"",""itemB"":""experience pain"",""categoryA"":""physical"",""categoryB"":""physiological"",""attention_check"":false,""correct_response"":null}","{""itemA"":""take a walk"",""itemB"":""think about something"",""categoryA"":""physical"",""categoryB"":""cognitive"",""attention_check"":false,""correct_response"":null}","{""itemA"":""take a walk"",""itemB"":""become hungry"",""categoryA"":""physical"",""categoryB"":""physiological"",""attention_check"":false,""correct_response"":null}","{""itemA"":""take a walk"",""itemB"":""get sick"",""categoryA"":""physical"",""categoryB"":""physiological"",""attention_check"":false,""correct_response"":null}","{""itemA"":""take a walk"",""itemB"":""remember something"",""categoryA"":""physical"",""categoryB"":""cognitive"",""attention_check"":false,""correct_response"":null}","{""itemA"":""take a walk"",""itemB"":""see something"",""categoryA"":""physical"",""categoryB"":""cognitive"",""attention_check"":false,""correct_response"":null}","{""itemA"":""take a walk"",""itemB"":""get tired"",""categoryA"":""physical"",""categoryB"":""physiological"",""attention_check"":false,""correct_response"":null}","{""itemA"":""take a walk"",""itemB"":""sit down"",""categoryA"":""physical"",""categoryB"":""physical"",""attention_check"":false,""correct_response"":null}","{""itemA"":""take a walk"",""itemB"":""jump up and down"",""categoryA"":""physical"",""categoryB"":""physical"",""attention_check"":false,""correct_response"":null}","{""itemA"":""take a walk"",""itemB"":""kick something"",""categoryA"":""physical"",""categoryB"":""physical"",""attention_check"":false,""correct_response"":null}","{""itemA"":""take a walk"",""itemB"":""feel scared"",""categoryA"":""physical"",""categoryB"":""physiological"",""attention_check"":false,""correct_response"":null}","{""itemA"":""take a walk"",""itemB"":""hear something"",""categoryA"":""physical"",""categoryB"":""cognitive"",""attention_check"":false,""correct_response"":null}","[0,1,2,3,4,5,6,7,8,9,10,11,12,13,14]","","","","","",""
"","","","","","survey-slider","14","null","1683232","BA2BCA7CCB1C4030859B5BC1E915D44D","9f1e043e-e82e-4db8-9ae1-0e86ca4c2346","c9908d3c-c6c0-4ff0-8197-ad6b853728e6","","88708.7999997139","","{""Q0"":""0"",""Q1"":""57"",""Q2"":""0"",""Q3"":""0"",""Q4"":""0"",""Q5"":""0"",""Q6"":""70"",""Q7"":""0"",""Q8"":""100"",""Q9"":""75"",""Q10"":""55"",""Q11"":""0"",""Q12"":""0"",""Q13"":""24"",""Q14"":""0"",""Q15"":""0""}","","","","","{""itemA"":""reach for something"",""itemB"":""think about something"",""categoryA"":""physical"",""categoryB"":""cognitive"",""attention_check"":false,""correct_response"":null}","{""itemA"":""reach for something"",""itemB"":""choose what to do"",""categoryA"":""physical"",""categoryB"":""cognitive"",""attention_check"":false,""correct_response"":null}","{""itemA"":""reach for something"",""itemB"":""kick something"",""categoryA"":""physical"",""categoryB"":""physical"",""attention_check"":false,""correct_response"":null}","{""itemA"":""reach for something"",""itemB"":""jump up and down"",""categoryA"":""physical"",""categoryB"":""physical"",""attention_check"":false,""correct_response"":null}","{""itemA"":""reach for something"",""itemB"":""remember something"",""categoryA"":""physical"",""categoryB"":""cognitive"",""attention_check"":false,""correct_response"":null}","{""itemA"":""reach for something"",""itemB"":""sit down"",""categoryA"":""physical"",""categoryB"":""physical"",""attention_check"":false,""correct_response"":null}","{""itemA"":""reach for something"",""itemB"":""experience pain"",""categoryA"":""physical"",""categoryB"":""physiological"",""attention_check"":false,""correct_response"":null}","{""itemA"":""reach for something"",""itemB"":""become hungry"",""categoryA"":""physical"",""categoryB"":""physiological"",""attention_check"":false,""correct_response"":null}","{""itemA"":""reach for something"",""itemB"":""reach for something"",""categoryA"":""physical"",""categoryB"":""physical"",""attention_check"":false,""correct_response"":null}","{""itemA"":null,""itemB"":null,""categoryA"":null,""categoryB"":null,""attention_check"":true,""correct_response"":75}","{""itemA"":""reach for something"",""itemB"":""get tired"",""categoryA"":""physical"",""categoryB"":""physiological"",""attention_check"":false,""correct_response"":null}","{""itemA"":""reach for something"",""itemB"":""hear something"",""categoryA"":""physical"",""categoryB"":""cognitive"",""attention_check"":false,""correct_response"":null}","{""itemA"":""reach for something"",""itemB"":""get sick"",""categoryA"":""physical"",""categoryB"":""physiological"",""attention_check"":false,""correct_response"":null}","{""itemA"":""reach for something"",""itemB"":""feel scared"",""categoryA"":""physical"",""categoryB"":""physiological"",""attention_check"":false,""correct_response"":null}","{""itemA"":""reach for something"",""itemB"":""see something"",""categoryA"":""physical"",""categoryB"":""cognitive"",""attention_check"":false,""correct_response"":null}","[0,1,2,3,4,5,6,7,8,9,10,11,12,13,14,15]","{""itemA"":""reach for something"",""itemB"":""take a walk"",""categoryA"":""physical"",""categoryB"":""physical"",""attention_check"":false,""correct_response"":null}","","","","",""
"","","","","","survey-slider","15","null","1759647","BA2BCA7CCB1C4030859B5BC1E915D44D","9f1e043e-e82e-4db8-9ae1-0e86ca4c2346","c9908d3c-c6c0-4ff0-8197-ad6b853728e6","","76409.2999997139","","{""Q0"":""97"",""Q1"":""100"",""Q2"":""100"",""Q3"":""0"",""Q4"":""58"",""Q5"":""100"",""Q6"":""71"",""Q7"":""4"",""Q8"":""18"",""Q9"":""0"",""Q10"":""100"",""Q11"":""0"",""Q12"":""0"",""Q13"":""0"",""Q14"":""0""}","","","","","{""itemA"":""get sick"",""itemB"":""sit down"",""categoryA"":""physiological"",""categoryB"":""physical"",""attention_check"":false,""correct_response"":null}","{""itemA"":""get sick"",""itemB"":""get tired"",""categoryA"":""physiological"",""categoryB"":""physiological"",""attention_check"":false,""correct_response"":null}","{""itemA"":""get sick"",""itemB"":""experience pain"",""categoryA"":""physiological"",""categoryB"":""physiological"",""attention_check"":false,""correct_response"":null}","{""itemA"":""get sick"",""itemB"":""hear something"",""categoryA"":""physiological"",""categoryB"":""cognitive"",""attention_check"":false,""correct_response"":null}","{""itemA"":""get sick"",""itemB"":""think about something"",""categoryA"":""physiological"",""categoryB"":""cognitive"",""attention_check"":false,""correct_response"":null}","{""itemA"":""get sick"",""itemB"":""feel scared"",""categoryA"":""physiological"",""categoryB"":""physiological"",""attention_check"":false,""correct_response"":null}","{""itemA"":""get sick"",""itemB"":""choose what to do"",""categoryA"":""physiological"",""categoryB"":""cognitive"",""attention_check"":false,""correct_response"":null}","{""itemA"":""get sick"",""itemB"":""see something"",""categoryA"":""physiological"",""categoryB"":""cognitive"",""attention_check"":false,""correct_response"":null}","{""itemA"":""get sick"",""itemB"":""become hungry"",""categoryA"":""physiological"",""categoryB"":""physiological"",""attention_check"":false,""correct_response"":null}","{""itemA"":""get sick"",""itemB"":""reach for something"",""categoryA"":""physiological"",""categoryB"":""physical"",""attention_check"":false,""correct_response"":null}","{""itemA"":""get sick"",""itemB"":""get sick"",""categoryA"":""physiological"",""categoryB"":""physiological"",""attention_check"":false,""correct_response"":null}","{""itemA"":""get sick"",""itemB"":""remember something"",""categoryA"":""physiological"",""categoryB"":""cognitive"",""attention_check"":false,""correct_response"":null}","{""itemA"":""get sick"",""itemB"":""jump up and down"",""categoryA"":""physiological"",""categoryB"":""physical"",""attention_check"":false,""correct_response"":null}","{""itemA"":""get sick"",""itemB"":""take a walk"",""categoryA"":""physiological"",""categoryB"":""physical"",""attention_check"":false,""correct_response"":null}","{""itemA"":""get sick"",""itemB"":""kick something"",""categoryA"":""physiological"",""categoryB"":""physical"",""attention_check"":false,""correct_response"":null}","[0,1,2,3,4,5,6,7,8,9,10,11,12,13,14]","","","","","",""
"","","","","","survey-slider","16","null","1855812","BA2BCA7CCB1C4030859B5BC1E915D44D","9f1e043e-e82e-4db8-9ae1-0e86ca4c2346","c9908d3c-c6c0-4ff0-8197-ad6b853728e6","","96158","","{""Q0"":""7"",""Q1"":""4"",""Q2"":""0"",""Q3"":""0"",""Q4"":""8"",""Q5"":""0"",""Q6"":""76"",""Q7"":""79"",""Q8"":""0"",""Q9"":""0"",""Q10"":""0"",""Q11"":""65"",""Q12"":""19"",""Q13"":""100"",""Q14"":""59"",""Q15"":""0""}","","","","","{""itemA"":""choose what to do"",""itemB"":""remember something"",""categoryA"":""cognitive"",""categoryB"":""cognitive"",""attention_check"":false,""correct_response"":null}","{""itemA"":""choose what to do"",""itemB"":""feel scared"",""categoryA"":""cognitive"",""categoryB"":""physiological"",""attention_check"":false,""correct_response"":null}","{""itemA"":""choose what to do"",""itemB"":""get sick"",""categoryA"":""cognitive"",""categoryB"":""physiological"",""attention_check"":false,""correct_response"":null}","{""itemA"":""choose what to do"",""itemB"":""get tired"",""categoryA"":""cognitive"",""categoryB"":""physiological"",""attention_check"":false,""correct_response"":null}","{""itemA"":""choose what to do"",""itemB"":""take a walk"",""categoryA"":""cognitive"",""categoryB"":""physical"",""attention_check"":false,""correct_response"":null}","{""itemA"":""choose what to do"",""itemB"":""experience pain"",""categoryA"":""cognitive"",""categoryB"":""physiological"",""attention_check"":false,""correct_response"":null}","{""itemA"":""choose what to do"",""itemB"":""sit down"",""categoryA"":""cognitive"",""categoryB"":""physical"",""attention_check"":false,""correct_response"":null}","{""itemA"":""choose what to do"",""itemB"":""kick something"",""categoryA"":""cognitive"",""categoryB"":""physical"",""attention_check"":false,""correct_response"":null}","{""itemA"":""choose what to do"",""itemB"":""hear something"",""categoryA"":""cognitive"",""categoryB"":""cognitive"",""attention_check"":false,""correct_response"":null}","{""itemA"":null,""itemB"":null,""categoryA"":null,""categoryB"":null,""attention_check"":true,""correct_response"":null}","{""itemA"":""choose what to do"",""itemB"":""see something"",""categoryA"":""cognitive"",""categoryB"":""cognitive"",""attention_check"":false,""correct_response"":null}","{""itemA"":""choose what to do"",""itemB"":""think about something"",""categoryA"":""cognitive"",""categoryB"":""cognitive"",""attention_check"":false,""correct_response"":null}","{""itemA"":""choose what to do"",""itemB"":""jump up and down"",""categoryA"":""cognitive"",""categoryB"":""physical"",""attention_check"":false,""correct_response"":null}","{""itemA"":""choose what to do"",""itemB"":""choose what to do"",""categoryA"":""cognitive"",""categoryB"":""cognitive"",""attention_check"":false,""correct_response"":null}","{""itemA"":""choose what to do"",""itemB"":""reach for something"",""categoryA"":""cognitive"",""categoryB"":""physical"",""attention_check"":false,""correct_response"":null}","[0,1,2,3,4,5,6,7,8,9,10,11,12,13,14,15]","{""itemA"":""choose what to do"",""itemB"":""become hungry"",""categoryA"":""cognitive"",""categoryB"":""physiological"",""attention_check"":false,""correct_response"":null}","","","","",""
"","","","","","survey-slider","17","null","1966180","BA2BCA7CCB1C4030859B5BC1E915D44D","9f1e043e-e82e-4db8-9ae1-0e86ca4c2346","c9908d3c-c6c0-4ff0-8197-ad6b853728e6","","110364.59999990463","","{""Q0"":""0"",""Q1"":""4"",""Q2"":""0"",""Q3"":""56"",""Q4"":""80"",""Q5"":""81"",""Q6"":""57"",""Q7"":""100"",""Q8"":""0"",""Q9"":""0"",""Q10"":""0"",""Q11"":""78"",""Q12"":""0"",""Q13"":""100"",""Q14"":""0""}","","","","","{""itemA"":""experience pain"",""itemB"":""hear something"",""categoryA"":""physiological"",""categoryB"":""cognitive"",""attention_check"":false,""correct_response"":null}","{""itemA"":""experience pain"",""itemB"":""remember something"",""categoryA"":""physiological"",""categoryB"":""cognitive"",""attention_check"":false,""correct_response"":null}","{""itemA"":""experience pain"",""itemB"":""reach for something"",""categoryA"":""physiological"",""categoryB"":""physical"",""attention_check"":false,""correct_response"":null}","{""itemA"":""experience pain"",""itemB"":""sit down"",""categoryA"":""physiological"",""categoryB"":""physical"",""attention_check"":false,""correct_response"":null}","{""itemA"":""experience pain"",""itemB"":""choose what to do"",""categoryA"":""physiological"",""categoryB"":""cognitive"",""attention_check"":false,""correct_response"":null}","{""itemA"":""experience pain"",""itemB"":""think about something"",""categoryA"":""physiological"",""categoryB"":""cognitive"",""attention_check"":false,""correct_response"":null}","{""itemA"":""experience pain"",""itemB"":""get tired"",""categoryA"":""physiological"",""categoryB"":""physiological"",""attention_check"":false,""correct_response"":null}","{""itemA"":""experience pain"",""itemB"":""experience pain"",""categoryA"":""physiological"",""categoryB"":""physiological"",""attention_check"":false,""correct_response"":null}","{""itemA"":""experience pain"",""itemB"":""kick something"",""categoryA"":""physiological"",""categoryB"":""physical"",""attention_check"":false,""correct_response"":null}","{""itemA"":""experience pain"",""itemB"":""jump up and down"",""categoryA"":""physiological"",""categoryB"":""physical"",""attention_check"":false,""correct_response"":null}","{""itemA"":""experience pain"",""itemB"":""see something"",""categoryA"":""physiological"",""categoryB"":""cognitive"",""attention_check"":false,""correct_response"":null}","{""itemA"":""experience pain"",""itemB"":""get sick"",""categoryA"":""physiological"",""categoryB"":""physiological"",""attention_check"":false,""correct_response"":null}","{""itemA"":""experience pain"",""itemB"":""take a walk"",""categoryA"":""physiological"",""categoryB"":""physical"",""attention_check"":false,""correct_response"":null}","{""itemA"":""experience pain"",""itemB"":""feel scared"",""categoryA"":""physiological"",""categoryB"":""physiological"",""attention_check"":false,""correct_response"":null}","{""itemA"":""experience pain"",""itemB"":""become hungry"",""categoryA"":""physiological"",""categoryB"":""physiological"",""attention_check"":false,""correct_response"":null}","[0,1,2,3,4,5,6,7,8,9,10,11,12,13,14]","","","","","",""
"","","","","","survey-slider","18","null","2026542","BA2BCA7CCB1C4030859B5BC1E915D44D","9f1e043e-e82e-4db8-9ae1-0e86ca4c2346","c9908d3c-c6c0-4ff0-8197-ad6b853728e6","","60359","","{""Q0"":""0"",""Q1"":""100"",""Q2"":""0"",""Q3"":""0"",""Q4"":""0"",""Q5"":""0"",""Q6"":""100"",""Q7"":""92"",""Q8"":""0"",""Q9"":""0"",""Q10"":""33"",""Q11"":""0"",""Q12"":""23"",""Q13"":""68"",""Q14"":""0""}","","","","","{""itemA"":""remember something"",""itemB"":""sit down"",""categoryA"":""cognitive"",""categoryB"":""physical"",""attention_check"":false,""correct_response"":null}","{""itemA"":""remember something"",""itemB"":""remember something"",""categoryA"":""cognitive"",""categoryB"":""cognitive"",""attention_check"":false,""correct_response"":null}","{""itemA"":""remember something"",""itemB"":""see something"",""categoryA"":""cognitive"",""categoryB"":""cognitive"",""attention_check"":false,""correct_response"":null}","{""itemA"":""remember something"",""itemB"":""jump up and down"",""categoryA"":""cognitive"",""categoryB"":""physical"",""attention_check"":false,""correct_response"":null}","{""itemA"":""remember something"",""itemB"":""experience pain"",""categoryA"":""cognitive"",""categoryB"":""physiological"",""attention_check"":false,""correct_response"":null}","{""itemA"":""remember something"",""itemB"":""hear something"",""categoryA"":""cognitive"",""categoryB"":""cognitive"",""attention_check"":false,""correct_response"":null}","{""itemA"":""remember something"",""itemB"":""think about something"",""categoryA"":""cognitive"",""categoryB"":""cognitive"",""attention_check"":false,""correct_response"":null}","{""itemA"":""remember something"",""itemB"":""choose what to do"",""categoryA"":""cognitive"",""categoryB"":""cognitive"",""attention_check"":false,""correct_response"":null}","{""itemA"":""remember something"",""itemB"":""get sick"",""categoryA"":""cognitive"",""categoryB"":""physiological"",""attention_check"":false,""correct_response"":null}","{""itemA"":""remember something"",""itemB"":""become hungry"",""categoryA"":""cognitive"",""categoryB"":""physiological"",""attention_check"":false,""correct_response"":null}","{""itemA"":""remember something"",""itemB"":""kick something"",""categoryA"":""cognitive"",""categoryB"":""physical"",""attention_check"":false,""correct_response"":null}","{""itemA"":""remember something"",""itemB"":""get tired"",""categoryA"":""cognitive"",""categoryB"":""physiological"",""attention_check"":false,""correct_response"":null}","{""itemA"":""remember something"",""itemB"":""reach for something"",""categoryA"":""cognitive"",""categoryB"":""physical"",""attention_check"":false,""correct_response"":null}","{""itemA"":""remember something"",""itemB"":""feel scared"",""categoryA"":""cognitive"",""categoryB"":""physiological"",""attention_check"":false,""correct_response"":null}","{""itemA"":""remember something"",""itemB"":""take a walk"",""categoryA"":""cognitive"",""categoryB"":""physical"",""attention_check"":false,""correct_response"":null}","[0,1,2,3,4,5,6,7,8,9,10,11,12,13,14]","","","","","",""
"","","","","","survey-slider","19","null","2204579","BA2BCA7CCB1C4030859B5BC1E915D44D","9f1e043e-e82e-4db8-9ae1-0e86ca4c2346","c9908d3c-c6c0-4ff0-8197-ad6b853728e6","","178033","","{""Q0"":""57"",""Q1"":""100"",""Q2"":""0"",""Q3"":""99"",""Q4"":""100"",""Q5"":""0"",""Q6"":""100"",""Q7"":""0"",""Q8"":""0"",""Q9"":""0"",""Q10"":""0"",""Q11"":""78"",""Q12"":""0"",""Q13"":""22"",""Q14"":""0"",""Q15"":""68""}","","","","","{""itemA"":""feel scared"",""itemB"":""remember something"",""categoryA"":""physiological"",""categoryB"":""cognitive"",""attention_check"":false,""correct_response"":null}","{""itemA"":null,""itemB"":null,""categoryA"":null,""categoryB"":null,""attention_check"":true,""correct_response"":100}","{""itemA"":""feel scared"",""itemB"":""sit down"",""categoryA"":""physiological"",""categoryB"":""physical"",""attention_check"":false,""correct_response"":null}","{""itemA"":""feel scared"",""itemB"":""think about something"",""categoryA"":""physiological"",""categoryB"":""cognitive"",""attention_check"":false,""correct_response"":null}","{""itemA"":""feel scared"",""itemB"":""feel scared"",""categoryA"":""physiological"",""categoryB"":""physiological"",""attention_check"":false,""correct_response"":null}","{""itemA"":""feel scared"",""itemB"":""experience pain"",""categoryA"":""physiological"",""categoryB"":""physiological"",""attention_check"":false,""correct_response"":null}","{""itemA"":""feel scared"",""itemB"":""choose what to do"",""categoryA"":""physiological"",""categoryB"":""cognitive"",""attention_check"":false,""correct_response"":null}","{""itemA"":""feel scared"",""itemB"":""become hungry"",""categoryA"":""physiological"",""categoryB"":""physiological"",""attention_check"":false,""correct_response"":null}","{""itemA"":""feel scared"",""itemB"":""jump up and down"",""categoryA"":""physiological"",""categoryB"":""physical"",""attention_check"":false,""correct_response"":null}","{""itemA"":""feel scared"",""itemB"":""get sick"",""categoryA"":""physiological"",""categoryB"":""physiological"",""attention_check"":false,""correct_response"":null}","{""itemA"":""feel scared"",""itemB"":""get tired"",""categoryA"":""physiological"",""categoryB"":""physiological"",""attention_check"":false,""correct_response"":null}","{""itemA"":""feel scared"",""itemB"":""reach for something"",""categoryA"":""physiological"",""categoryB"":""physical"",""attention_check"":false,""correct_response"":null}","{""itemA"":""feel scared"",""itemB"":""take a walk"",""categoryA"":""physiological"",""categoryB"":""physical"",""attention_check"":false,""correct_response"":null}","{""itemA"":""feel scared"",""itemB"":""see something"",""categoryA"":""physiological"",""categoryB"":""cognitive"",""attention_check"":false,""correct_response"":null}","{""itemA"":""feel scared"",""itemB"":""kick something"",""categoryA"":""physiological"",""categoryB"":""physical"",""attention_check"":false,""correct_response"":null}","[0,1,2,3,4,5,6,7,8,9,10,11,12,13,14,15]","{""itemA"":""feel scared"",""itemB"":""hear something"",""categoryA"":""physiological"",""categoryB"":""cognitive"",""attention_check"":false,""correct_response"":null}","","","","",""
"","","","","","survey-slider","20","null","2272922","BA2BCA7CCB1C4030859B5BC1E915D44D","9f1e043e-e82e-4db8-9ae1-0e86ca4c2346","c9908d3c-c6c0-4ff0-8197-ad6b853728e6","","68339.69999980927","","{""Q0"":""0"",""Q1"":""0"",""Q2"":""84"",""Q3"":""0"",""Q4"":""70"",""Q5"":""0"",""Q6"":""57"",""Q7"":""0"",""Q8"":""86"",""Q9"":""99"",""Q10"":""0"",""Q11"":""9"",""Q12"":""100"",""Q13"":""9"",""Q14"":""100""}","","","","","{""itemA"":""see something"",""itemB"":""become hungry"",""categoryA"":""cognitive"",""categoryB"":""physiological"",""attention_check"":false,""correct_response"":null}","{""itemA"":""see something"",""itemB"":""experience pain"",""categoryA"":""cognitive"",""categoryB"":""physiological"",""attention_check"":false,""correct_response"":null}","{""itemA"":""see something"",""itemB"":""reach for something"",""categoryA"":""cognitive"",""categoryB"":""physical"",""attention_check"":false,""correct_response"":null}","{""itemA"":""see something"",""itemB"":""get tired"",""categoryA"":""cognitive"",""categoryB"":""physiological"",""attention_check"":false,""correct_response"":null}","{""itemA"":""see something"",""itemB"":""feel scared"",""categoryA"":""cognitive"",""categoryB"":""physiological"",""attention_check"":false,""correct_response"":null}","{""itemA"":""see something"",""itemB"":""jump up and down"",""categoryA"":""cognitive"",""categoryB"":""physical"",""attention_check"":false,""correct_response"":null}","{""itemA"":""see something"",""itemB"":""hear something"",""categoryA"":""cognitive"",""categoryB"":""cognitive"",""attention_check"":false,""correct_response"":null}","{""itemA"":""see something"",""itemB"":""kick something"",""categoryA"":""cognitive"",""categoryB"":""physical"",""attention_check"":false,""correct_response"":null}","{""itemA"":""see something"",""itemB"":""choose what to do"",""categoryA"":""cognitive"",""categoryB"":""cognitive"",""attention_check"":false,""correct_response"":null}","{""itemA"":""see something"",""itemB"":""think about something"",""categoryA"":""cognitive"",""categoryB"":""cognitive"",""attention_check"":false,""correct_response"":null}","{""itemA"":""see something"",""itemB"":""get sick"",""categoryA"":""cognitive"",""categoryB"":""physiological"",""attention_check"":false,""correct_response"":null}","{""itemA"":""see something"",""itemB"":""take a walk"",""categoryA"":""cognitive"",""categoryB"":""physical"",""attention_check"":false,""correct_response"":null}","{""itemA"":""see something"",""itemB"":""see something"",""categoryA"":""cognitive"",""categoryB"":""cognitive"",""attention_check"":false,""correct_response"":null}","{""itemA"":""see something"",""itemB"":""sit down"",""categoryA"":""cognitive"",""categoryB"":""physical"",""attention_check"":false,""correct_response"":null}","{""itemA"":""see something"",""itemB"":""remember something"",""categoryA"":""cognitive"",""categoryB"":""cognitive"",""attention_check"":false,""correct_response"":null}","[0,1,2,3,4,5,6,7,8,9,10,11,12,13,14]","","","","","",""
"","","","","","survey-slider","21","null","2371303","BA2BCA7CCB1C4030859B5BC1E915D44D","9f1e043e-e82e-4db8-9ae1-0e86ca4c2346","c9908d3c-c6c0-4ff0-8197-ad6b853728e6","","98376.2999997139","","{""Q0"":""0"",""Q1"":""0"",""Q2"":""0"",""Q3"":""0"",""Q4"":""2"",""Q5"":""0"",""Q6"":""0"",""Q7"":""0"",""Q8"":""0"",""Q9"":""0"",""Q10"":""0"",""Q11"":""0"",""Q12"":""100"",""Q13"":""0"",""Q14"":""0""}","","","","","{""itemA"":""sit down"",""itemB"":""think about something"",""categoryA"":""physical"",""categoryB"":""cognitive"",""attention_check"":false,""correct_response"":null}","{""itemA"":""sit down"",""itemB"":""take a walk"",""categoryA"":""physical"",""categoryB"":""physical"",""attention_check"":false,""correct_response"":null}","{""itemA"":""sit down"",""itemB"":""get tired"",""categoryA"":""physical"",""categoryB"":""physiological"",""attention_check"":false,""correct_response"":null}","{""itemA"":""sit down"",""itemB"":""get sick"",""categoryA"":""physical"",""categoryB"":""physiological"",""attention_check"":false,""correct_response"":null}","{""itemA"":""sit down"",""itemB"":""choose what to do"",""categoryA"":""physical"",""categoryB"":""cognitive"",""attention_check"":false,""correct_response"":null}","{""itemA"":""sit down"",""itemB"":""remember something"",""categoryA"":""physical"",""categoryB"":""cognitive"",""attention_check"":false,""correct_response"":null}","{""itemA"":""sit down"",""itemB"":""hear something"",""categoryA"":""physical"",""categoryB"":""cognitive"",""attention_check"":false,""correct_response"":null}","{""itemA"":""sit down"",""itemB"":""kick something"",""categoryA"":""physical"",""categoryB"":""physical"",""attention_check"":false,""correct_response"":null}","{""itemA"":""sit down"",""itemB"":""feel scared"",""categoryA"":""physical"",""categoryB"":""physiological"",""attention_check"":false,""correct_response"":null}","{""itemA"":""sit down"",""itemB"":""experience pain"",""categoryA"":""physical"",""categoryB"":""physiological"",""attention_check"":false,""correct_response"":null}","{""itemA"":""sit down"",""itemB"":""see something"",""categoryA"":""physical"",""categoryB"":""cognitive"",""attention_check"":false,""correct_response"":null}","{""itemA"":""sit down"",""itemB"":""reach for something"",""categoryA"":""physical"",""categoryB"":""physical"",""attention_check"":false,""correct_response"":null}","{""itemA"":""sit down"",""itemB"":""sit down"",""categoryA"":""physical"",""categoryB"":""physical"",""attention_check"":false,""correct_response"":null}","{""itemA"":""sit down"",""itemB"":""jump up and down"",""categoryA"":""physical"",""categoryB"":""physical"",""attention_check"":false,""correct_response"":null}","{""itemA"":""sit down"",""itemB"":""become hungry"",""categoryA"":""physical"",""categoryB"":""physiological"",""attention_check"":false,""correct_response"":null}","[0,1,2,3,4,5,6,7,8,9,10,11,12,13,14]","","","","","",""
"","","","","","instructions","22","2.0.0","2390223","BA2BCA7CCB1C4030859B5BC1E915D44D","9f1e043e-e82e-4db8-9ae1-0e86ca4c2346","c9908d3c-c6c0-4ff0-8197-ad6b853728e6","","18918","","","[{""page_index"":0,""viewing_time"":18918}]","","","","","","","","","","","","","","","","","","","","","","","","",""
"","","","","","survey-html-form","23","2.0.0","2485521","BA2BCA7CCB1C4030859B5BC1E915D44D","9f1e043e-e82e-4db8-9ae1-0e86ca4c2346","c9908d3c-c6c0-4ff0-8197-ad6b853728e6","demographics_survey","95296","","{""feedback"":""I tried to group the initial items how they made the most sense to me, and then I chose based on what made sense to me on whether one event would cause another for me personally most of the time."",""age"":""40"",""gender"":""Male"",""other_gender"":"""",""race"":""White"",""other_race"":"""",""ethnicity"":""Non-Hispanic""}","","","","","","","","","","","","","","","","","","","","","","I tried to group the initial items how they made the most sense to me, and then I chose based on what made sense to me on whether one event would cause another for me personally most of the time.","40","Non-Hispanic","Male","White"
