"success","timeout","failed_images","failed_audio","failed_video","trial_type","trial_index","plugin_version","time_elapsed","mturk_participant_id","mturk_assignment_id","mturk_project_id","trial_id","rt","stimulus","response","view_history","init_locations","moves","final_locations","0","1","2","3","4","5","6","7","8","9","10","11","12","13","14","question_order","15","feedback","age","ethnicity","gender","race"
"true","false","[]","[]","[]","preload","0","2.0.0","476","746439A1D93B4C738345602E74D32971","480bc914-83db-4d87-91ef-287bb05241af","c9908d3c-c6c0-4ff0-8197-ad6b853728e6","","","","","","","","","","","","","","","","","","","","","","","","","","","","","",""
"","","","","","html-button-response","1","2.0.0","13056","746439A1D93B4C738345602E74D32971","480bc914-83db-4d87-91ef-287bb05241af","c9908d3c-c6c0-4ff0-8197-ad6b853728e6","consent","12579","<p><b>Consent Form</b></p> <div style=""text-align:left;background-color:lightblue; padding:2vw; max-width:80vw;""><p><b>Purpose:</b> The purpose of this study is to understand how people think about the physical and social world.</p><p><b>Procedures:</b> In this study, you will watch videos, read sentences, or see pictures, and answer simple questions about them. This study should take approximately 30 minutes</p><p><b>Participation:</b> Participation in this study is voluntary. If you decide to join now, you can change your mind later. </p><p><b>Payment:</b> You will be paid $15.00/hour for participating in this study. Given the estimated duration of 30 minutes, your payment will amount to $7.50.</p><p><b>Risks and benefits:</b> There are no risks associated with participating in this study. There are no direct benefits associated with participating in this study. </p><p><b>Use of data by study researchers:</b> The research team led by Shari Liu at JHU will have access to your answers. </p><p><b>Publication of results:</b> The results of the research may be presented at scientific meetings or published in scientific journals. Your individual responses may be published. We will never publish your name, the date that you participated, and any other information that could be used to identify you. </p><p><b>Researcher contact information:</b> This study is run by Dr. Shari Liu at JHU. If you have any questions or concerns about this study, or in the very unlikely event of a research-related injury, please contact sliu199@jhu.edu. </p><p><b>Research rights information:</b> If you have questions about your rights as a research participant or feel that you have not been treated fairly, please call the Homewood Institutional Review Board at Johns Hopkins University at (410) 516-6580. If you have any questions or issues completing the survey, please email Shari Liu at sliu199@jhu.edu. </p> </div><p> Do you consent to participate? </p>","0","","","","","","","","","","","","","","","","","","","","","","","","","",""
"","","","","","instructions","2","2.0.0","16750","746439A1D93B4C738345602E74D32971","480bc914-83db-4d87-91ef-287bb05241af","c9908d3c-c6c0-4ff0-8197-ad6b853728e6","","3694","","","[{""page_index"":0,""viewing_time"":3694}]","","","","","","","","","","","","","","","","","","","","","","","","",""
"","","","","","instructions","3","2.0.0","61073","746439A1D93B4C738345602E74D32971","480bc914-83db-4d87-91ef-287bb05241af","c9908d3c-c6c0-4ff0-8197-ad6b853728e6","","44323","","","[{""page_index"":0,""viewing_time"":44323}]","","","","","","","","","","","","","","","","","","","","","","","","",""
"","","","","","video-button-response","4","2.0.0","85938","746439A1D93B4C738345602E74D32971","480bc914-83db-4d87-91ef-287bb05241af","c9908d3c-c6c0-4ff0-8197-ad6b853728e6","example_videos","24864","[""video/example-video-circles.mp4""]","0","","","","","","","","","","","","","","","","","","","","","","","","","",""
"","","","","","free-sort","5","2.0.1","144888","746439A1D93B4C738345602E74D32971","480bc914-83db-4d87-91ef-287bb05241af","c9908d3c-c6c0-4ff0-8197-ad6b853728e6","","58948","","","","[{""src"":""images/items-circles/img10.png"",""x"":610.4166666666667,""y"":0},{""src"":""images/items-circles/img8.png"",""x"":-60.41666666666666,""y"":550},{""src"":""images/items-circles/img3.png"",""x"":610.4166666666667,""y"":183.33333333333334},{""src"":""images/items-circles/img11.png"",""x"":-60.41666666666666,""y"":366.6666666666667},{""src"":""images/items-circles/img5.png"",""x"":610.4166666666667,""y"":366.6666666666667},{""src"":""images/items-circles/img1.png"",""x"":-60.41666666666666,""y"":183.33333333333334},{""src"":""images/items-circles/img15.png"",""x"":610.4166666666667,""y"":550},{""src"":""images/items-circles/img12.png"",""x"":-60.41666666666666,""y"":0},{""src"":""images/items-circles/img7.png"",""x"":793.75,""y"":0},{""src"":""images/items-circles/img13.png"",""x"":-243.75,""y"":550},{""src"":""images/items-circles/img4.png"",""x"":793.75,""y"":183.33333333333334},{""src"":""images/items-circles/img2.png"",""x"":-243.75,""y"":366.6666666666667},{""src"":""images/items-circles/img6.png"",""x"":793.75,""y"":366.6666666666667},{""src"":""images/items-circles/img14.png"",""x"":-243.75,""y"":183.33333333333334},{""src"":""images/items-circles/img9.png"",""x"":793.75,""y"":550}]","[{""src"":""images/items-circles/img4.png"",""x"":390,""y"":224},{""src"":""images/items-circles/img4.png"",""x"":471,""y"":185},{""src"":""images/items-circles/img5.png"",""x"":466,""y"":227},{""src"":""images/items-circles/img7.png"",""x"":450,""y"":174},{""src"":""images/items-circles/img3.png"",""x"":419,""y"":369},{""src"":""images/items-circles/img6.png"",""x"":456,""y"":399},{""src"":""images/items-circles/img4.png"",""x"":497,""y"":186},{""src"":""images/items-circles/img9.png"",""x"":293,""y"":509},{""src"":""images/items-circles/img8.png"",""x"":-92,""y"":546},{""src"":""images/items-circles/img11.png"",""x"":256,""y"":506},{""src"":""images/items-circles/img8.png"",""x"":120,""y"":456},{""src"":""images/items-circles/img10.png"",""x"":99,""y"":430},{""src"":""images/items-circles/img1.png"",""x"":294,""y"":482},{""src"":""images/items-circles/img14.png"",""x"":102,""y"":157},{""src"":""images/items-circles/img12.png"",""x"":111,""y"":174},{""src"":""images/items-circles/img2.png"",""x"":125,""y"":186},{""src"":""images/items-circles/img13.png"",""x"":106,""y"":199},{""src"":""images/items-circles/img15.png"",""x"":118,""y"":210}]","[{""src"":""images/items-circles/img10.png"",""x"":98,""y"":430},{""src"":""images/items-circles/img8.png"",""x"":120,""y"":456},{""src"":""images/items-circles/img3.png"",""x"":418,""y"":369},{""src"":""images/items-circles/img11.png"",""x"":256,""y"":505},{""src"":""images/items-circles/img5.png"",""x"":466,""y"":227},{""src"":""images/items-circles/img1.png"",""x"":293,""y"":481},{""src"":""images/items-circles/img15.png"",""x"":117,""y"":210},{""src"":""images/items-circles/img12.png"",""x"":111,""y"":173},{""src"":""images/items-circles/img7.png"",""x"":450,""y"":173},{""src"":""images/items-circles/img13.png"",""x"":106,""y"":198},{""src"":""images/items-circles/img4.png"",""x"":497,""y"":186},{""src"":""images/items-circles/img2.png"",""x"":124,""y"":185},{""src"":""images/items-circles/img6.png"",""x"":456,""y"":399},{""src"":""images/items-circles/img14.png"",""x"":102,""y"":156},{""src"":""images/items-circles/img9.png"",""x"":292,""y"":508}]","","","","","","","","","","","","","","","","","","","","","",""
"","","","","","instructions","6","2.0.0","151657","746439A1D93B4C738345602E74D32971","480bc914-83db-4d87-91ef-287bb05241af","c9908d3c-c6c0-4ff0-8197-ad6b853728e6","","6769","","","[{""page_index"":0,""viewing_time"":6769}]","","","","","","","","","","","","","","","","","","","","","","","","",""
"","","","","","survey-slider","7","null","203030","746439A1D93B4C738345602E74D32971","480bc914-83db-4d87-91ef-287bb05241af","c9908d3c-c6c0-4ff0-8197-ad6b853728e6","","51370.90000000596","","{""Q0"":""26"",""Q1"":""25"",""Q2"":""70"",""Q3"":""68"",""Q4"":""30"",""Q5"":""71"",""Q6"":""73"",""Q7"":""97"",""Q8"":""96"",""Q9"":""70"",""Q10"":""75"",""Q11"":""24"",""Q12"":""97"",""Q13"":""99"",""Q14"":""94""}","","","","","{""itemA"":""take a walk"",""itemB"":""get sick"",""categoryA"":""physical"",""categoryB"":""physiological"",""attention_check"":false,""correct_response"":null}","{""itemA"":""take a walk"",""itemB"":""jump up and down"",""categoryA"":""physical"",""categoryB"":""physical"",""attention_check"":false,""correct_response"":null}","{""itemA"":""take a walk"",""itemB"":""hear something"",""categoryA"":""physical"",""categoryB"":""cognitive"",""attention_check"":false,""correct_response"":null}","{""itemA"":""take a walk"",""itemB"":""think about something"",""categoryA"":""physical"",""categoryB"":""cognitive"",""attention_check"":false,""correct_response"":null}","{""itemA"":""take a walk"",""itemB"":""reach for something"",""categoryA"":""physical"",""categoryB"":""physical"",""attention_check"":false,""correct_response"":null}","{""itemA"":""take a walk"",""itemB"":""remember something"",""categoryA"":""physical"",""categoryB"":""cognitive"",""attention_check"":false,""correct_response"":null}","{""itemA"":""take a walk"",""itemB"":""experience pain"",""categoryA"":""physical"",""categoryB"":""physiological"",""attention_check"":false,""correct_response"":null}","{""itemA"":""take a walk"",""itemB"":""get tired"",""categoryA"":""physical"",""categoryB"":""physiological"",""attention_check"":false,""correct_response"":null}","{""itemA"":""take a walk"",""itemB"":""see something"",""categoryA"":""physical"",""categoryB"":""cognitive"",""attention_check"":false,""correct_response"":null}","{""itemA"":""take a walk"",""itemB"":""choose what to do"",""categoryA"":""physical"",""categoryB"":""cognitive"",""attention_check"":false,""correct_response"":null}","{""itemA"":""take a walk"",""itemB"":""feel scared"",""categoryA"":""physical"",""categoryB"":""physiological"",""attention_check"":false,""correct_response"":null}","{""itemA"":""take a walk"",""itemB"":""kick something"",""categoryA"":""physical"",""categoryB"":""physical"",""attention_check"":false,""correct_response"":null}","{""itemA"":""take a walk"",""itemB"":""sit down"",""categoryA"":""physical"",""categoryB"":""physical"",""attention_check"":false,""correct_response"":null}","{""itemA"":""take a walk"",""itemB"":""take a walk"",""categoryA"":""physical"",""categoryB"":""physical"",""attention_check"":false,""correct_response"":null}","{""itemA"":""take a walk"",""itemB"":""become hungry"",""categoryA"":""physical"",""categoryB"":""physiological"",""attention_check"":false,""correct_response"":null}","[0,1,2,3,4,5,6,7,8,9,10,11,12,13,14]","","","","","",""
"","","","","","survey-slider","8","null","262678","746439A1D93B4C738345602E74D32971","480bc914-83db-4d87-91ef-287bb05241af","c9908d3c-c6c0-4ff0-8197-ad6b853728e6","","59645.5","","{""Q0"":""98"",""Q1"":""76"",""Q2"":""71"",""Q3"":""96"",""Q4"":""74"",""Q5"":""94"",""Q6"":""27"",""Q7"":""74"",""Q8"":""71"",""Q9"":""95"",""Q10"":""28"",""Q11"":""96"",""Q12"":""99"",""Q13"":""29"",""Q14"":""72""}","","","","","{""itemA"":""hear something"",""itemB"":""choose what to do"",""categoryA"":""cognitive"",""categoryB"":""cognitive"",""attention_check"":false,""correct_response"":null}","{""itemA"":""hear something"",""itemB"":""become hungry"",""categoryA"":""cognitive"",""categoryB"":""physiological"",""attention_check"":false,""correct_response"":null}","{""itemA"":""hear something"",""itemB"":""reach for something"",""categoryA"":""cognitive"",""categoryB"":""physical"",""attention_check"":false,""correct_response"":null}","{""itemA"":""hear something"",""itemB"":""hear something"",""categoryA"":""cognitive"",""categoryB"":""cognitive"",""attention_check"":false,""correct_response"":null}","{""itemA"":""hear something"",""itemB"":""sit down"",""categoryA"":""cognitive"",""categoryB"":""physical"",""attention_check"":false,""correct_response"":null}","{""itemA"":""hear something"",""itemB"":""jump up and down"",""categoryA"":""cognitive"",""categoryB"":""physical"",""attention_check"":false,""correct_response"":null}","{""itemA"":""hear something"",""itemB"":""get tired"",""categoryA"":""cognitive"",""categoryB"":""physiological"",""attention_check"":false,""correct_response"":null}","{""itemA"":""hear something"",""itemB"":""think about something"",""categoryA"":""cognitive"",""categoryB"":""cognitive"",""attention_check"":false,""correct_response"":null}","{""itemA"":""hear something"",""itemB"":""take a walk"",""categoryA"":""cognitive"",""categoryB"":""physical"",""attention_check"":false,""correct_response"":null}","{""itemA"":""hear something"",""itemB"":""feel scared"",""categoryA"":""cognitive"",""categoryB"":""physiological"",""attention_check"":false,""correct_response"":null}","{""itemA"":""hear something"",""itemB"":""get sick"",""categoryA"":""cognitive"",""categoryB"":""physiological"",""attention_check"":false,""correct_response"":null}","{""itemA"":""hear something"",""itemB"":""experience pain"",""categoryA"":""cognitive"",""categoryB"":""physiological"",""attention_check"":false,""correct_response"":null}","{""itemA"":""hear something"",""itemB"":""remember something"",""categoryA"":""cognitive"",""categoryB"":""cognitive"",""attention_check"":false,""correct_response"":null}","{""itemA"":""hear something"",""itemB"":""kick something"",""categoryA"":""cognitive"",""categoryB"":""physical"",""attention_check"":false,""correct_response"":null}","{""itemA"":""hear something"",""itemB"":""see something"",""categoryA"":""cognitive"",""categoryB"":""cognitive"",""attention_check"":false,""correct_response"":null}","[0,1,2,3,4,5,6,7,8,9,10,11,12,13,14]","","","","","",""
"","","","","","survey-slider","9","null","300813","746439A1D93B4C738345602E74D32971","480bc914-83db-4d87-91ef-287bb05241af","c9908d3c-c6c0-4ff0-8197-ad6b853728e6","","38133","","{""Q0"":""100"",""Q1"":""29"",""Q2"":""74"",""Q3"":""27"",""Q4"":""27"",""Q5"":""28"",""Q6"":""100"",""Q7"":""29"",""Q8"":""29"",""Q9"":""75"",""Q10"":""28"",""Q11"":""5"",""Q12"":""77"",""Q13"":""25"",""Q14"":""96""}","","","","","{""itemA"":""kick something"",""itemB"":""kick something"",""categoryA"":""physical"",""categoryB"":""physical"",""attention_check"":false,""correct_response"":null}","{""itemA"":""kick something"",""itemB"":""become hungry"",""categoryA"":""physical"",""categoryB"":""physiological"",""attention_check"":false,""correct_response"":null}","{""itemA"":""kick something"",""itemB"":""see something"",""categoryA"":""physical"",""categoryB"":""cognitive"",""attention_check"":false,""correct_response"":null}","{""itemA"":""kick something"",""itemB"":""think about something"",""categoryA"":""physical"",""categoryB"":""cognitive"",""attention_check"":false,""correct_response"":null}","{""itemA"":""kick something"",""itemB"":""take a walk"",""categoryA"":""physical"",""categoryB"":""physical"",""attention_check"":false,""correct_response"":null}","{""itemA"":""kick something"",""itemB"":""choose what to do"",""categoryA"":""physical"",""categoryB"":""cognitive"",""attention_check"":false,""correct_response"":null}","{""itemA"":""kick something"",""itemB"":""experience pain"",""categoryA"":""physical"",""categoryB"":""physiological"",""attention_check"":false,""correct_response"":null}","{""itemA"":""kick something"",""itemB"":""remember something"",""categoryA"":""physical"",""categoryB"":""cognitive"",""attention_check"":false,""correct_response"":null}","{""itemA"":""kick something"",""itemB"":""sit down"",""categoryA"":""physical"",""categoryB"":""physical"",""attention_check"":false,""correct_response"":null}","{""itemA"":""kick something"",""itemB"":""get tired"",""categoryA"":""physical"",""categoryB"":""physiological"",""attention_check"":false,""correct_response"":null}","{""itemA"":""kick something"",""itemB"":""feel scared"",""categoryA"":""physical"",""categoryB"":""physiological"",""attention_check"":false,""correct_response"":null}","{""itemA"":""kick something"",""itemB"":""get sick"",""categoryA"":""physical"",""categoryB"":""physiological"",""attention_check"":false,""correct_response"":null}","{""itemA"":""kick something"",""itemB"":""jump up and down"",""categoryA"":""physical"",""categoryB"":""physical"",""attention_check"":false,""correct_response"":null}","{""itemA"":""kick something"",""itemB"":""reach for something"",""categoryA"":""physical"",""categoryB"":""physical"",""attention_check"":false,""correct_response"":null}","{""itemA"":""kick something"",""itemB"":""hear something"",""categoryA"":""physical"",""categoryB"":""cognitive"",""attention_check"":false,""correct_response"":null}","[0,1,2,3,4,5,6,7,8,9,10,11,12,13,14]","","","","","",""
"","","","","","survey-slider","10","null","357591","746439A1D93B4C738345602E74D32971","480bc914-83db-4d87-91ef-287bb05241af","c9908d3c-c6c0-4ff0-8197-ad6b853728e6","","56775.79999999702","","{""Q0"":""73"",""Q1"":""76"",""Q2"":""25"",""Q3"":""70"",""Q4"":""26"",""Q5"":""69"",""Q6"":""70"",""Q7"":""74"",""Q8"":""0"",""Q9"":""10"",""Q10"":""85"",""Q11"":""41"",""Q12"":""85"",""Q13"":""16"",""Q14"":""42"",""Q15"":""100""}","","","","","{""itemA"":""reach for something"",""itemB"":""choose what to do"",""categoryA"":""physical"",""categoryB"":""cognitive"",""attention_check"":false,""correct_response"":null}","{""itemA"":""reach for something"",""itemB"":""think about something"",""categoryA"":""physical"",""categoryB"":""cognitive"",""attention_check"":false,""correct_response"":null}","{""itemA"":""reach for something"",""itemB"":""jump up and down"",""categoryA"":""physical"",""categoryB"":""physical"",""attention_check"":false,""correct_response"":null}","{""itemA"":""reach for something"",""itemB"":""become hungry"",""categoryA"":""physical"",""categoryB"":""physiological"",""attention_check"":false,""correct_response"":null}","{""itemA"":""reach for something"",""itemB"":""sit down"",""categoryA"":""physical"",""categoryB"":""physical"",""attention_check"":false,""correct_response"":null}","{""itemA"":""reach for something"",""itemB"":""get sick"",""categoryA"":""physical"",""categoryB"":""physiological"",""attention_check"":false,""correct_response"":null}","{""itemA"":""reach for something"",""itemB"":""feel scared"",""categoryA"":""physical"",""categoryB"":""physiological"",""attention_check"":false,""correct_response"":null}","{""itemA"":""reach for something"",""itemB"":""experience pain"",""categoryA"":""physical"",""categoryB"":""physiological"",""attention_check"":false,""correct_response"":null}","{""itemA"":null,""itemB"":null,""categoryA"":null,""categoryB"":null,""attention_check"":true,""correct_response"":null}","{""itemA"":""reach for something"",""itemB"":""take a walk"",""categoryA"":""physical"",""categoryB"":""physical"",""attention_check"":false,""correct_response"":null}","{""itemA"":""reach for something"",""itemB"":""remember something"",""categoryA"":""physical"",""categoryB"":""cognitive"",""attention_check"":false,""correct_response"":null}","{""itemA"":""reach for something"",""itemB"":""hear something"",""categoryA"":""physical"",""categoryB"":""cognitive"",""attention_check"":false,""correct_response"":null}","{""itemA"":""reach for something"",""itemB"":""see something"",""categoryA"":""physical"",""categoryB"":""cognitive"",""attention_check"":false,""correct_response"":null}","{""itemA"":""reach for something"",""itemB"":""kick something"",""categoryA"":""physical"",""categoryB"":""physical"",""attention_check"":false,""correct_response"":null}","{""itemA"":""reach for something"",""itemB"":""get tired"",""categoryA"":""physical"",""categoryB"":""physiological"",""attention_check"":false,""correct_response"":null}","[0,1,2,3,4,5,6,7,8,9,10,11,12,13,14,15]","{""itemA"":""reach for something"",""itemB"":""reach for something"",""categoryA"":""physical"",""categoryB"":""physical"",""attention_check"":false,""correct_response"":null}","","","","",""
"","","","","","survey-slider","11","null","529896","746439A1D93B4C738345602E74D32971","480bc914-83db-4d87-91ef-287bb05241af","c9908d3c-c6c0-4ff0-8197-ad6b853728e6","","172302.29999999702","","{""Q0"":""100"",""Q1"":""89"",""Q2"":""88"",""Q3"":""100"",""Q4"":""100"",""Q5"":""74"",""Q6"":""86"",""Q7"":""100"",""Q8"":""100"",""Q9"":""99"",""Q10"":""100"",""Q11"":""92"",""Q12"":""100"",""Q13"":""77"",""Q14"":""63""}","","","","","{""itemA"":""see something"",""itemB"":""see something"",""categoryA"":""cognitive"",""categoryB"":""cognitive"",""attention_check"":false,""correct_response"":null}","{""itemA"":""see something"",""itemB"":""sit down"",""categoryA"":""cognitive"",""categoryB"":""physical"",""attention_check"":false,""correct_response"":null}","{""itemA"":""see something"",""itemB"":""reach for something"",""categoryA"":""cognitive"",""categoryB"":""physical"",""attention_check"":false,""correct_response"":null}","{""itemA"":""see something"",""itemB"":""feel scared"",""categoryA"":""cognitive"",""categoryB"":""physiological"",""attention_check"":false,""correct_response"":null}","{""itemA"":""see something"",""itemB"":""jump up and down"",""categoryA"":""cognitive"",""categoryB"":""physical"",""attention_check"":false,""correct_response"":null}","{""itemA"":""see something"",""itemB"":""take a walk"",""categoryA"":""cognitive"",""categoryB"":""physical"",""attention_check"":false,""correct_response"":null}","{""itemA"":""see something"",""itemB"":""get tired"",""categoryA"":""cognitive"",""categoryB"":""physiological"",""attention_check"":false,""correct_response"":null}","{""itemA"":""see something"",""itemB"":""become hungry"",""categoryA"":""cognitive"",""categoryB"":""physiological"",""attention_check"":false,""correct_response"":null}","{""itemA"":""see something"",""itemB"":""experience pain"",""categoryA"":""cognitive"",""categoryB"":""physiological"",""attention_check"":false,""correct_response"":null}","{""itemA"":""see something"",""itemB"":""choose what to do"",""categoryA"":""cognitive"",""categoryB"":""cognitive"",""attention_check"":false,""correct_response"":null}","{""itemA"":""see something"",""itemB"":""remember something"",""categoryA"":""cognitive"",""categoryB"":""cognitive"",""attention_check"":false,""correct_response"":null}","{""itemA"":""see something"",""itemB"":""hear something"",""categoryA"":""cognitive"",""categoryB"":""cognitive"",""attention_check"":false,""correct_response"":null}","{""itemA"":""see something"",""itemB"":""think about something"",""categoryA"":""cognitive"",""categoryB"":""cognitive"",""attention_check"":false,""correct_response"":null}","{""itemA"":""see something"",""itemB"":""get sick"",""categoryA"":""cognitive"",""categoryB"":""physiological"",""attention_check"":false,""correct_response"":null}","{""itemA"":""see something"",""itemB"":""kick something"",""categoryA"":""cognitive"",""categoryB"":""physical"",""attention_check"":false,""correct_response"":null}","[0,1,2,3,4,5,6,7,8,9,10,11,12,13,14]","","","","","",""
"","","","","","survey-slider","12","null","574396","746439A1D93B4C738345602E74D32971","480bc914-83db-4d87-91ef-287bb05241af","c9908d3c-c6c0-4ff0-8197-ad6b853728e6","","44497.70000000298","","{""Q0"":""99"",""Q1"":""86"",""Q2"":""100"",""Q3"":""100"",""Q4"":""64"",""Q5"":""88"",""Q6"":""100"",""Q7"":""74"",""Q8"":""64"",""Q9"":""75"",""Q10"":""63"",""Q11"":""82"",""Q12"":""93"",""Q13"":""69"",""Q14"":""37""}","","","","","{""itemA"":""experience pain"",""itemB"":""get sick"",""categoryA"":""physiological"",""categoryB"":""physiological"",""attention_check"":false,""correct_response"":null}","{""itemA"":""experience pain"",""itemB"":""get tired"",""categoryA"":""physiological"",""categoryB"":""physiological"",""attention_check"":false,""correct_response"":null}","{""itemA"":""experience pain"",""itemB"":""jump up and down"",""categoryA"":""physiological"",""categoryB"":""physical"",""attention_check"":false,""correct_response"":null}","{""itemA"":""experience pain"",""itemB"":""experience pain"",""categoryA"":""physiological"",""categoryB"":""physiological"",""attention_check"":false,""correct_response"":null}","{""itemA"":""experience pain"",""itemB"":""see something"",""categoryA"":""physiological"",""categoryB"":""cognitive"",""attention_check"":false,""correct_response"":null}","{""itemA"":""experience pain"",""itemB"":""think about something"",""categoryA"":""physiological"",""categoryB"":""cognitive"",""attention_check"":false,""correct_response"":null}","{""itemA"":""experience pain"",""itemB"":""feel scared"",""categoryA"":""physiological"",""categoryB"":""physiological"",""attention_check"":false,""correct_response"":null}","{""itemA"":""experience pain"",""itemB"":""reach for something"",""categoryA"":""physiological"",""categoryB"":""physical"",""attention_check"":false,""correct_response"":null}","{""itemA"":""experience pain"",""itemB"":""take a walk"",""categoryA"":""physiological"",""categoryB"":""physical"",""attention_check"":false,""correct_response"":null}","{""itemA"":""experience pain"",""itemB"":""remember something"",""categoryA"":""physiological"",""categoryB"":""cognitive"",""attention_check"":false,""correct_response"":null}","{""itemA"":""experience pain"",""itemB"":""kick something"",""categoryA"":""physiological"",""categoryB"":""physical"",""attention_check"":false,""correct_response"":null}","{""itemA"":""experience pain"",""itemB"":""sit down"",""categoryA"":""physiological"",""categoryB"":""physical"",""attention_check"":false,""correct_response"":null}","{""itemA"":""experience pain"",""itemB"":""choose what to do"",""categoryA"":""physiological"",""categoryB"":""cognitive"",""attention_check"":false,""correct_response"":null}","{""itemA"":""experience pain"",""itemB"":""become hungry"",""categoryA"":""physiological"",""categoryB"":""physiological"",""attention_check"":false,""correct_response"":null}","{""itemA"":""experience pain"",""itemB"":""hear something"",""categoryA"":""physiological"",""categoryB"":""cognitive"",""attention_check"":false,""correct_response"":null}","[0,1,2,3,4,5,6,7,8,9,10,11,12,13,14]","","","","","",""
"","","","","","survey-slider","13","null","621375","746439A1D93B4C738345602E74D32971","480bc914-83db-4d87-91ef-287bb05241af","c9908d3c-c6c0-4ff0-8197-ad6b853728e6","","46978","","{""Q0"":""69"",""Q1"":""75"",""Q2"":""73"",""Q3"":""67"",""Q4"":""100"",""Q5"":""29"",""Q6"":""19"",""Q7"":""34"",""Q8"":""100"",""Q9"":""100"",""Q10"":""93"",""Q11"":""100"",""Q12"":""100"",""Q13"":""73"",""Q14"":""65""}","","","","","{""itemA"":""get sick"",""itemB"":""sit down"",""categoryA"":""physiological"",""categoryB"":""physical"",""attention_check"":false,""correct_response"":null}","{""itemA"":""get sick"",""itemB"":""remember something"",""categoryA"":""physiological"",""categoryB"":""cognitive"",""attention_check"":false,""correct_response"":null}","{""itemA"":""get sick"",""itemB"":""reach for something"",""categoryA"":""physiological"",""categoryB"":""physical"",""attention_check"":false,""correct_response"":null}","{""itemA"":""get sick"",""itemB"":""jump up and down"",""categoryA"":""physiological"",""categoryB"":""physical"",""attention_check"":false,""correct_response"":null}","{""itemA"":""get sick"",""itemB"":""get tired"",""categoryA"":""physiological"",""categoryB"":""physiological"",""attention_check"":false,""correct_response"":null}","{""itemA"":""get sick"",""itemB"":""kick something"",""categoryA"":""physiological"",""categoryB"":""physical"",""attention_check"":false,""correct_response"":null}","{""itemA"":""get sick"",""itemB"":""take a walk"",""categoryA"":""physiological"",""categoryB"":""physical"",""attention_check"":false,""correct_response"":null}","{""itemA"":""get sick"",""itemB"":""hear something"",""categoryA"":""physiological"",""categoryB"":""cognitive"",""attention_check"":false,""correct_response"":null}","{""itemA"":""get sick"",""itemB"":""choose what to do"",""categoryA"":""physiological"",""categoryB"":""cognitive"",""attention_check"":false,""correct_response"":null}","{""itemA"":""get sick"",""itemB"":""get sick"",""categoryA"":""physiological"",""categoryB"":""physiological"",""attention_check"":false,""correct_response"":null}","{""itemA"":""get sick"",""itemB"":""think about something"",""categoryA"":""physiological"",""categoryB"":""cognitive"",""attention_check"":false,""correct_response"":null}","{""itemA"":""get sick"",""itemB"":""experience pain"",""categoryA"":""physiological"",""categoryB"":""physiological"",""attention_check"":false,""correct_response"":null}","{""itemA"":""get sick"",""itemB"":""feel scared"",""categoryA"":""physiological"",""categoryB"":""physiological"",""attention_check"":false,""correct_response"":null}","{""itemA"":""get sick"",""itemB"":""become hungry"",""categoryA"":""physiological"",""categoryB"":""physiological"",""attention_check"":false,""correct_response"":null}","{""itemA"":""get sick"",""itemB"":""see something"",""categoryA"":""physiological"",""categoryB"":""cognitive"",""attention_check"":false,""correct_response"":null}","[0,1,2,3,4,5,6,7,8,9,10,11,12,13,14]","","","","","",""
"","","","","","survey-slider","14","null","664773","746439A1D93B4C738345602E74D32971","480bc914-83db-4d87-91ef-287bb05241af","c9908d3c-c6c0-4ff0-8197-ad6b853728e6","","43396","","{""Q0"":""71"",""Q1"":""74"",""Q2"":""76"",""Q3"":""100"",""Q4"":""76"",""Q5"":""70"",""Q6"":""75"",""Q7"":""100"",""Q8"":""100"",""Q9"":""58"",""Q10"":""97"",""Q11"":""74"",""Q12"":""100"",""Q13"":""100"",""Q14"":""74"",""Q15"":""91""}","","","","","{""itemA"":""think about something"",""itemB"":""sit down"",""categoryA"":""cognitive"",""categoryB"":""physical"",""attention_check"":false,""correct_response"":null}","{""itemA"":""think about something"",""itemB"":""get sick"",""categoryA"":""cognitive"",""categoryB"":""physiological"",""attention_check"":false,""correct_response"":null}","{""itemA"":""think about something"",""itemB"":""see something"",""categoryA"":""cognitive"",""categoryB"":""cognitive"",""attention_check"":false,""correct_response"":null}","{""itemA"":""think about something"",""itemB"":""remember something"",""categoryA"":""cognitive"",""categoryB"":""cognitive"",""attention_check"":false,""correct_response"":null}","{""itemA"":""think about something"",""itemB"":""take a walk"",""categoryA"":""cognitive"",""categoryB"":""physical"",""attention_check"":false,""correct_response"":null}","{""itemA"":""think about something"",""itemB"":""hear something"",""categoryA"":""cognitive"",""categoryB"":""cognitive"",""attention_check"":false,""correct_response"":null}","{""itemA"":""think about something"",""itemB"":""get tired"",""categoryA"":""cognitive"",""categoryB"":""physiological"",""attention_check"":false,""correct_response"":null}","{""itemA"":""think about something"",""itemB"":""choose what to do"",""categoryA"":""cognitive"",""categoryB"":""cognitive"",""attention_check"":false,""correct_response"":null}","{""itemA"":""think about something"",""itemB"":""think about something"",""categoryA"":""cognitive"",""categoryB"":""cognitive"",""attention_check"":false,""correct_response"":null}","{""itemA"":""think about something"",""itemB"":""kick something"",""categoryA"":""cognitive"",""categoryB"":""physical"",""attention_check"":false,""correct_response"":null}","{""itemA"":""think about something"",""itemB"":""become hungry"",""categoryA"":""cognitive"",""categoryB"":""physiological"",""attention_check"":false,""correct_response"":null}","{""itemA"":""think about something"",""itemB"":""reach for something"",""categoryA"":""cognitive"",""categoryB"":""physical"",""attention_check"":false,""correct_response"":null}","{""itemA"":""think about something"",""itemB"":""feel scared"",""categoryA"":""cognitive"",""categoryB"":""physiological"",""attention_check"":false,""correct_response"":null}","{""itemA"":""think about something"",""itemB"":""jump up and down"",""categoryA"":""cognitive"",""categoryB"":""physical"",""attention_check"":false,""correct_response"":null}","{""itemA"":null,""itemB"":null,""categoryA"":null,""categoryB"":null,""attention_check"":true,""correct_response"":75}","[0,1,2,3,4,5,6,7,8,9,10,11,12,13,14,15]","{""itemA"":""think about something"",""itemB"":""experience pain"",""categoryA"":""cognitive"",""categoryB"":""physiological"",""attention_check"":false,""correct_response"":null}","","","","",""
"","","","","","survey-slider","15","null","707837","746439A1D93B4C738345602E74D32971","480bc914-83db-4d87-91ef-287bb05241af","c9908d3c-c6c0-4ff0-8197-ad6b853728e6","","43062.39999999106","","{""Q0"":""60"",""Q1"":""69"",""Q2"":""71"",""Q3"":""75"",""Q4"":""25"",""Q5"":""59"",""Q6"":""56"",""Q7"":""100"",""Q8"":""37"",""Q9"":""35"",""Q10"":""70"",""Q11"":""41"",""Q12"":""76"",""Q13"":""100"",""Q14"":""41""}","","","","","{""itemA"":""jump up and down"",""itemB"":""remember something"",""categoryA"":""physical"",""categoryB"":""cognitive"",""attention_check"":false,""correct_response"":null}","{""itemA"":""jump up and down"",""itemB"":""experience pain"",""categoryA"":""physical"",""categoryB"":""physiological"",""attention_check"":false,""correct_response"":null}","{""itemA"":""jump up and down"",""itemB"":""sit down"",""categoryA"":""physical"",""categoryB"":""physical"",""attention_check"":false,""correct_response"":null}","{""itemA"":""jump up and down"",""itemB"":""hear something"",""categoryA"":""physical"",""categoryB"":""cognitive"",""attention_check"":false,""correct_response"":null}","{""itemA"":""jump up and down"",""itemB"":""reach for something"",""categoryA"":""physical"",""categoryB"":""physical"",""attention_check"":false,""correct_response"":null}","{""itemA"":""jump up and down"",""itemB"":""get sick"",""categoryA"":""physical"",""categoryB"":""physiological"",""attention_check"":false,""correct_response"":null}","{""itemA"":""jump up and down"",""itemB"":""feel scared"",""categoryA"":""physical"",""categoryB"":""physiological"",""attention_check"":false,""correct_response"":null}","{""itemA"":""jump up and down"",""itemB"":""get tired"",""categoryA"":""physical"",""categoryB"":""physiological"",""attention_check"":false,""correct_response"":null}","{""itemA"":""jump up and down"",""itemB"":""choose what to do"",""categoryA"":""physical"",""categoryB"":""cognitive"",""attention_check"":false,""correct_response"":null}","{""itemA"":""jump up and down"",""itemB"":""kick something"",""categoryA"":""physical"",""categoryB"":""physical"",""attention_check"":false,""correct_response"":null}","{""itemA"":""jump up and down"",""itemB"":""see something"",""categoryA"":""physical"",""categoryB"":""cognitive"",""attention_check"":false,""correct_response"":null}","{""itemA"":""jump up and down"",""itemB"":""think about something"",""categoryA"":""physical"",""categoryB"":""cognitive"",""attention_check"":false,""correct_response"":null}","{""itemA"":""jump up and down"",""itemB"":""become hungry"",""categoryA"":""physical"",""categoryB"":""physiological"",""attention_check"":false,""correct_response"":null}","{""itemA"":""jump up and down"",""itemB"":""jump up and down"",""categoryA"":""physical"",""categoryB"":""physical"",""attention_check"":false,""correct_response"":null}","{""itemA"":""jump up and down"",""itemB"":""take a walk"",""categoryA"":""physical"",""categoryB"":""physical"",""attention_check"":false,""correct_response"":null}","[0,1,2,3,4,5,6,7,8,9,10,11,12,13,14]","","","","","",""
"","","","","","survey-slider","16","null","781933","746439A1D93B4C738345602E74D32971","480bc914-83db-4d87-91ef-287bb05241af","c9908d3c-c6c0-4ff0-8197-ad6b853728e6","","74093.69999998808","","{""Q0"":""73"",""Q1"":""100"",""Q2"":""18"",""Q3"":""39"",""Q4"":""65"",""Q5"":""24"",""Q6"":""14"",""Q7"":""25"",""Q8"":""82"",""Q9"":""40"",""Q10"":""38"",""Q11"":""79"",""Q12"":""0"",""Q13"":""76"",""Q14"":""76"",""Q15"":""15""}","","","","","{""itemA"":""sit down"",""itemB"":""think about something"",""categoryA"":""physical"",""categoryB"":""cognitive"",""attention_check"":false,""correct_response"":null}","{""itemA"":""sit down"",""itemB"":""sit down"",""categoryA"":""physical"",""categoryB"":""physical"",""attention_check"":false,""correct_response"":null}","{""itemA"":""sit down"",""itemB"":""jump up and down"",""categoryA"":""physical"",""categoryB"":""physical"",""attention_check"":false,""correct_response"":null}","{""itemA"":""sit down"",""itemB"":""hear something"",""categoryA"":""physical"",""categoryB"":""cognitive"",""attention_check"":false,""correct_response"":null}","{""itemA"":""sit down"",""itemB"":""choose what to do"",""categoryA"":""physical"",""categoryB"":""cognitive"",""attention_check"":false,""correct_response"":null}","{""itemA"":""sit down"",""itemB"":""take a walk"",""categoryA"":""physical"",""categoryB"":""physical"",""attention_check"":false,""correct_response"":null}","{""itemA"":""sit down"",""itemB"":""kick something"",""categoryA"":""physical"",""categoryB"":""physical"",""attention_check"":false,""correct_response"":null}","{""itemA"":""sit down"",""itemB"":""get tired"",""categoryA"":""physical"",""categoryB"":""physiological"",""attention_check"":false,""correct_response"":null}","{""itemA"":""sit down"",""itemB"":""experience pain"",""categoryA"":""physical"",""categoryB"":""physiological"",""attention_check"":false,""correct_response"":null}","{""itemA"":""sit down"",""itemB"":""get sick"",""categoryA"":""physical"",""categoryB"":""physiological"",""attention_check"":false,""correct_response"":null}","{""itemA"":""sit down"",""itemB"":""become hungry"",""categoryA"":""physical"",""categoryB"":""physiological"",""attention_check"":false,""correct_response"":null}","{""itemA"":""sit down"",""itemB"":""remember something"",""categoryA"":""physical"",""categoryB"":""cognitive"",""attention_check"":false,""correct_response"":null}","{""itemA"":null,""itemB"":null,""categoryA"":null,""categoryB"":null,""attention_check"":true,""correct_response"":null}","{""itemA"":""sit down"",""itemB"":""feel scared"",""categoryA"":""physical"",""categoryB"":""physiological"",""attention_check"":false,""correct_response"":null}","{""itemA"":""sit down"",""itemB"":""see something"",""categoryA"":""physical"",""categoryB"":""cognitive"",""attention_check"":false,""correct_response"":null}","[0,1,2,3,4,5,6,7,8,9,10,11,12,13,14,15]","{""itemA"":""sit down"",""itemB"":""reach for something"",""categoryA"":""physical"",""categoryB"":""physical"",""attention_check"":false,""correct_response"":null}","","","","",""
"","","","","","survey-slider","17","null","824978","746439A1D93B4C738345602E74D32971","480bc914-83db-4d87-91ef-287bb05241af","c9908d3c-c6c0-4ff0-8197-ad6b853728e6","","43043.90000000596","","{""Q0"":""28"",""Q1"":""70"",""Q2"":""75"",""Q3"":""92"",""Q4"":""95"",""Q5"":""100"",""Q6"":""76"",""Q7"":""91"",""Q8"":""65"",""Q9"":""80"",""Q10"":""93"",""Q11"":""86"",""Q12"":""99"",""Q13"":""37"",""Q14"":""36""}","","","","","{""itemA"":""become hungry"",""itemB"":""kick something"",""categoryA"":""physiological"",""categoryB"":""physical"",""attention_check"":false,""correct_response"":null}","{""itemA"":""become hungry"",""itemB"":""sit down"",""categoryA"":""physiological"",""categoryB"":""physical"",""attention_check"":false,""correct_response"":null}","{""itemA"":""become hungry"",""itemB"":""see something"",""categoryA"":""physiological"",""categoryB"":""cognitive"",""attention_check"":false,""correct_response"":null}","{""itemA"":""become hungry"",""itemB"":""feel scared"",""categoryA"":""physiological"",""categoryB"":""physiological"",""attention_check"":false,""correct_response"":null}","{""itemA"":""become hungry"",""itemB"":""reach for something"",""categoryA"":""physiological"",""categoryB"":""physical"",""attention_check"":false,""correct_response"":null}","{""itemA"":""become hungry"",""itemB"":""become hungry"",""categoryA"":""physiological"",""categoryB"":""physiological"",""attention_check"":false,""correct_response"":null}","{""itemA"":""become hungry"",""itemB"":""get tired"",""categoryA"":""physiological"",""categoryB"":""physiological"",""attention_check"":false,""correct_response"":null}","{""itemA"":""become hungry"",""itemB"":""think about something"",""categoryA"":""physiological"",""categoryB"":""cognitive"",""attention_check"":false,""correct_response"":null}","{""itemA"":""become hungry"",""itemB"":""take a walk"",""categoryA"":""physiological"",""categoryB"":""physical"",""attention_check"":false,""correct_response"":null}","{""itemA"":""become hungry"",""itemB"":""get sick"",""categoryA"":""physiological"",""categoryB"":""physiological"",""attention_check"":false,""correct_response"":null}","{""itemA"":""become hungry"",""itemB"":""experience pain"",""categoryA"":""physiological"",""categoryB"":""physiological"",""attention_check"":false,""correct_response"":null}","{""itemA"":""become hungry"",""itemB"":""remember something"",""categoryA"":""physiological"",""categoryB"":""cognitive"",""attention_check"":false,""correct_response"":null}","{""itemA"":""become hungry"",""itemB"":""choose what to do"",""categoryA"":""physiological"",""categoryB"":""cognitive"",""attention_check"":false,""correct_response"":null}","{""itemA"":""become hungry"",""itemB"":""hear something"",""categoryA"":""physiological"",""categoryB"":""cognitive"",""attention_check"":false,""correct_response"":null}","{""itemA"":""become hungry"",""itemB"":""jump up and down"",""categoryA"":""physiological"",""categoryB"":""physical"",""attention_check"":false,""correct_response"":null}","[0,1,2,3,4,5,6,7,8,9,10,11,12,13,14]","","","","","",""
"","","","","","survey-slider","18","null","864896","746439A1D93B4C738345602E74D32971","480bc914-83db-4d87-91ef-287bb05241af","c9908d3c-c6c0-4ff0-8197-ad6b853728e6","","39915.70000000298","","{""Q0"":""84"",""Q1"":""91"",""Q2"":""65"",""Q3"":""78"",""Q4"":""96"",""Q5"":""73"",""Q6"":""100"",""Q7"":""100"",""Q8"":""100"",""Q9"":""77"",""Q10"":""86"",""Q11"":""86"",""Q12"":""85"",""Q13"":""93"",""Q14"":""81""}","","","","","{""itemA"":""remember something"",""itemB"":""jump up and down"",""categoryA"":""cognitive"",""categoryB"":""physical"",""attention_check"":false,""correct_response"":null}","{""itemA"":""remember something"",""itemB"":""feel scared"",""categoryA"":""cognitive"",""categoryB"":""physiological"",""attention_check"":false,""correct_response"":null}","{""itemA"":""remember something"",""itemB"":""get tired"",""categoryA"":""cognitive"",""categoryB"":""physiological"",""attention_check"":false,""correct_response"":null}","{""itemA"":""remember something"",""itemB"":""see something"",""categoryA"":""cognitive"",""categoryB"":""cognitive"",""attention_check"":false,""correct_response"":null}","{""itemA"":""remember something"",""itemB"":""experience pain"",""categoryA"":""cognitive"",""categoryB"":""physiological"",""attention_check"":false,""correct_response"":null}","{""itemA"":""remember something"",""itemB"":""get sick"",""categoryA"":""cognitive"",""categoryB"":""physiological"",""attention_check"":false,""correct_response"":null}","{""itemA"":""remember something"",""itemB"":""remember something"",""categoryA"":""cognitive"",""categoryB"":""cognitive"",""attention_check"":false,""correct_response"":null}","{""itemA"":""remember something"",""itemB"":""think about something"",""categoryA"":""cognitive"",""categoryB"":""cognitive"",""attention_check"":false,""correct_response"":null}","{""itemA"":""remember something"",""itemB"":""become hungry"",""categoryA"":""cognitive"",""categoryB"":""physiological"",""attention_check"":false,""correct_response"":null}","{""itemA"":""remember something"",""itemB"":""kick something"",""categoryA"":""cognitive"",""categoryB"":""physical"",""attention_check"":false,""correct_response"":null}","{""itemA"":""remember something"",""itemB"":""reach for something"",""categoryA"":""cognitive"",""categoryB"":""physical"",""attention_check"":false,""correct_response"":null}","{""itemA"":""remember something"",""itemB"":""take a walk"",""categoryA"":""cognitive"",""categoryB"":""physical"",""attention_check"":false,""correct_response"":null}","{""itemA"":""remember something"",""itemB"":""sit down"",""categoryA"":""cognitive"",""categoryB"":""physical"",""attention_check"":false,""correct_response"":null}","{""itemA"":""remember something"",""itemB"":""choose what to do"",""categoryA"":""cognitive"",""categoryB"":""cognitive"",""attention_check"":false,""correct_response"":null}","{""itemA"":""remember something"",""itemB"":""hear something"",""categoryA"":""cognitive"",""categoryB"":""cognitive"",""attention_check"":false,""correct_response"":null}","[0,1,2,3,4,5,6,7,8,9,10,11,12,13,14]","","","","","",""
"","","","","","survey-slider","19","null","905498","746439A1D93B4C738345602E74D32971","480bc914-83db-4d87-91ef-287bb05241af","c9908d3c-c6c0-4ff0-8197-ad6b853728e6","","40601","","{""Q0"":""39"",""Q1"":""76"",""Q2"":""80"",""Q3"":""76"",""Q4"":""100"",""Q5"":""82"",""Q6"":""41"",""Q7"":""100"",""Q8"":""88"",""Q9"":""82"",""Q10"":""86"",""Q11"":""90"",""Q12"":""35"",""Q13"":""34"",""Q14"":""87"",""Q15"":""92""}","","","","","{""itemA"":""get tired"",""itemB"":""kick something"",""categoryA"":""physiological"",""categoryB"":""physical"",""attention_check"":false,""correct_response"":null}","{""itemA"":""get tired"",""itemB"":""become hungry"",""categoryA"":""physiological"",""categoryB"":""physiological"",""attention_check"":false,""correct_response"":null}","{""itemA"":""get tired"",""itemB"":""experience pain"",""categoryA"":""physiological"",""categoryB"":""physiological"",""attention_check"":false,""correct_response"":null}","{""itemA"":""get tired"",""itemB"":""think about something"",""categoryA"":""physiological"",""categoryB"":""cognitive"",""attention_check"":false,""correct_response"":null}","{""itemA"":null,""itemB"":null,""categoryA"":null,""categoryB"":null,""attention_check"":true,""correct_response"":100}","{""itemA"":""get tired"",""itemB"":""sit down"",""categoryA"":""physiological"",""categoryB"":""physical"",""attention_check"":false,""correct_response"":null}","{""itemA"":""get tired"",""itemB"":""take a walk"",""categoryA"":""physiological"",""categoryB"":""physical"",""attention_check"":false,""correct_response"":null}","{""itemA"":""get tired"",""itemB"":""get tired"",""categoryA"":""physiological"",""categoryB"":""physiological"",""attention_check"":false,""correct_response"":null}","{""itemA"":""get tired"",""itemB"":""remember something"",""categoryA"":""physiological"",""categoryB"":""cognitive"",""attention_check"":false,""correct_response"":null}","{""itemA"":""get tired"",""itemB"":""get sick"",""categoryA"":""physiological"",""categoryB"":""physiological"",""attention_check"":false,""correct_response"":null}","{""itemA"":""get tired"",""itemB"":""see something"",""categoryA"":""physiological"",""categoryB"":""cognitive"",""attention_check"":false,""correct_response"":null}","{""itemA"":""get tired"",""itemB"":""reach for something"",""categoryA"":""physiological"",""categoryB"":""physical"",""attention_check"":false,""correct_response"":null}","{""itemA"":""get tired"",""itemB"":""hear something"",""categoryA"":""physiological"",""categoryB"":""cognitive"",""attention_check"":false,""correct_response"":null}","{""itemA"":""get tired"",""itemB"":""jump up and down"",""categoryA"":""physiological"",""categoryB"":""physical"",""attention_check"":false,""correct_response"":null}","{""itemA"":""get tired"",""itemB"":""choose what to do"",""categoryA"":""physiological"",""categoryB"":""cognitive"",""attention_check"":false,""correct_response"":null}","[0,1,2,3,4,5,6,7,8,9,10,11,12,13,14,15]","{""itemA"":""get tired"",""itemB"":""feel scared"",""categoryA"":""physiological"",""categoryB"":""physiological"",""attention_check"":false,""correct_response"":null}","","","","",""
"","","","","","survey-slider","20","null","947301","746439A1D93B4C738345602E74D32971","480bc914-83db-4d87-91ef-287bb05241af","c9908d3c-c6c0-4ff0-8197-ad6b853728e6","","41801","","{""Q0"":""78"",""Q1"":""65"",""Q2"":""91"",""Q3"":""89"",""Q4"":""88"",""Q5"":""100"",""Q6"":""34"",""Q7"":""73"",""Q8"":""65"",""Q9"":""75"",""Q10"":""92"",""Q11"":""38"",""Q12"":""81"",""Q13"":""80"",""Q14"":""83""}","","","","","{""itemA"":""feel scared"",""itemB"":""sit down"",""categoryA"":""physiological"",""categoryB"":""physical"",""attention_check"":false,""correct_response"":null}","{""itemA"":""feel scared"",""itemB"":""get tired"",""categoryA"":""physiological"",""categoryB"":""physiological"",""attention_check"":false,""correct_response"":null}","{""itemA"":""feel scared"",""itemB"":""experience pain"",""categoryA"":""physiological"",""categoryB"":""physiological"",""attention_check"":false,""correct_response"":null}","{""itemA"":""feel scared"",""itemB"":""see something"",""categoryA"":""physiological"",""categoryB"":""cognitive"",""attention_check"":false,""correct_response"":null}","{""itemA"":""feel scared"",""itemB"":""remember something"",""categoryA"":""physiological"",""categoryB"":""cognitive"",""attention_check"":false,""correct_response"":null}","{""itemA"":""feel scared"",""itemB"":""feel scared"",""categoryA"":""physiological"",""categoryB"":""physiological"",""attention_check"":false,""correct_response"":null}","{""itemA"":""feel scared"",""itemB"":""hear something"",""categoryA"":""physiological"",""categoryB"":""cognitive"",""attention_check"":false,""correct_response"":null}","{""itemA"":""feel scared"",""itemB"":""get sick"",""categoryA"":""physiological"",""categoryB"":""physiological"",""attention_check"":false,""correct_response"":null}","{""itemA"":""feel scared"",""itemB"":""become hungry"",""categoryA"":""physiological"",""categoryB"":""physiological"",""attention_check"":false,""correct_response"":null}","{""itemA"":""feel scared"",""itemB"":""jump up and down"",""categoryA"":""physiological"",""categoryB"":""physical"",""attention_check"":false,""correct_response"":null}","{""itemA"":""feel scared"",""itemB"":""think about something"",""categoryA"":""physiological"",""categoryB"":""cognitive"",""attention_check"":false,""correct_response"":null}","{""itemA"":""feel scared"",""itemB"":""take a walk"",""categoryA"":""physiological"",""categoryB"":""physical"",""attention_check"":false,""correct_response"":null}","{""itemA"":""feel scared"",""itemB"":""choose what to do"",""categoryA"":""physiological"",""categoryB"":""cognitive"",""attention_check"":false,""correct_response"":null}","{""itemA"":""feel scared"",""itemB"":""reach for something"",""categoryA"":""physiological"",""categoryB"":""physical"",""attention_check"":false,""correct_response"":null}","{""itemA"":""feel scared"",""itemB"":""kick something"",""categoryA"":""physiological"",""categoryB"":""physical"",""attention_check"":false,""correct_response"":null}","[0,1,2,3,4,5,6,7,8,9,10,11,12,13,14]","","","","","",""
"","","","","","survey-slider","21","null","985184","746439A1D93B4C738345602E74D32971","480bc914-83db-4d87-91ef-287bb05241af","c9908d3c-c6c0-4ff0-8197-ad6b853728e6","","37881.80000001192","","{""Q0"":""85"",""Q1"":""86"",""Q2"":""87"",""Q3"":""86"",""Q4"":""86"",""Q5"":""83"",""Q6"":""57"",""Q7"":""86"",""Q8"":""84"",""Q9"":""87"",""Q10"":""100"",""Q11"":""78"",""Q12"":""79"",""Q13"":""76"",""Q14"":""82""}","","","","","{""itemA"":""choose what to do"",""itemB"":""feel scared"",""categoryA"":""cognitive"",""categoryB"":""physiological"",""attention_check"":false,""correct_response"":null}","{""itemA"":""choose what to do"",""itemB"":""see something"",""categoryA"":""cognitive"",""categoryB"":""cognitive"",""attention_check"":false,""correct_response"":null}","{""itemA"":""choose what to do"",""itemB"":""get tired"",""categoryA"":""cognitive"",""categoryB"":""physiological"",""attention_check"":false,""correct_response"":null}","{""itemA"":""choose what to do"",""itemB"":""remember something"",""categoryA"":""cognitive"",""categoryB"":""cognitive"",""attention_check"":false,""correct_response"":null}","{""itemA"":""choose what to do"",""itemB"":""kick something"",""categoryA"":""cognitive"",""categoryB"":""physical"",""attention_check"":false,""correct_response"":null}","{""itemA"":""choose what to do"",""itemB"":""reach for something"",""categoryA"":""cognitive"",""categoryB"":""physical"",""attention_check"":false,""correct_response"":null}","{""itemA"":""choose what to do"",""itemB"":""hear something"",""categoryA"":""cognitive"",""categoryB"":""cognitive"",""attention_check"":false,""correct_response"":null}","{""itemA"":""choose what to do"",""itemB"":""become hungry"",""categoryA"":""cognitive"",""categoryB"":""physiological"",""attention_check"":false,""correct_response"":null}","{""itemA"":""choose what to do"",""itemB"":""experience pain"",""categoryA"":""cognitive"",""categoryB"":""physiological"",""attention_check"":false,""correct_response"":null}","{""itemA"":""choose what to do"",""itemB"":""sit down"",""categoryA"":""cognitive"",""categoryB"":""physical"",""attention_check"":false,""correct_response"":null}","{""itemA"":""choose what to do"",""itemB"":""choose what to do"",""categoryA"":""cognitive"",""categoryB"":""cognitive"",""attention_check"":false,""correct_response"":null}","{""itemA"":""choose what to do"",""itemB"":""get sick"",""categoryA"":""cognitive"",""categoryB"":""physiological"",""attention_check"":false,""correct_response"":null}","{""itemA"":""choose what to do"",""itemB"":""think about something"",""categoryA"":""cognitive"",""categoryB"":""cognitive"",""attention_check"":false,""correct_response"":null}","{""itemA"":""choose what to do"",""itemB"":""jump up and down"",""categoryA"":""cognitive"",""categoryB"":""physical"",""attention_check"":false,""correct_response"":null}","{""itemA"":""choose what to do"",""itemB"":""take a walk"",""categoryA"":""cognitive"",""categoryB"":""physical"",""attention_check"":false,""correct_response"":null}","[0,1,2,3,4,5,6,7,8,9,10,11,12,13,14]","","","","","",""
"","","","","","instructions","22","2.0.0","990970","746439A1D93B4C738345602E74D32971","480bc914-83db-4d87-91ef-287bb05241af","c9908d3c-c6c0-4ff0-8197-ad6b853728e6","","5785","","","[{""page_index"":0,""viewing_time"":5785}]","","","","","","","","","","","","","","","","","","","","","","","","",""
"","","","","","survey-html-form","23","2.0.0","1061730","746439A1D93B4C738345602E74D32971","480bc914-83db-4d87-91ef-287bb05241af","c9908d3c-c6c0-4ff0-8197-ad6b853728e6","demographics_survey","70759","","{""feedback"":""very long, wish slider was faster to use and bigger"",""age"":""34"",""gender"":""Male"",""other_gender"":"""",""race"":""Asian"",""other_race"":"""",""ethnicity"":""Non-Hispanic""}","","","","","","","","","","","","","","","","","","","","","","very long, wish slider was faster to use and bigger","34","Non-Hispanic","Male","Asian"
