"success","timeout","failed_images","failed_audio","failed_video","trial_type","trial_index","plugin_version","time_elapsed","mturk_participant_id","mturk_assignment_id","mturk_project_id","trial_id","rt","stimulus","response","view_history","init_locations","moves","final_locations","0","1","2","3","4","5","6","7","8","9","10","11","12","13","14","question_order","15","feedback","age","ethnicity","gender","race"
"true","false","[]","[]","[]","preload","0","2.0.0","3637","8E5548975087426F87AB9CE79DC20E49","7923cc5b-9301-42f0-b40a-8aac5c9562bf","c9908d3c-c6c0-4ff0-8197-ad6b853728e6","","","","","","","","","","","","","","","","","","","","","","","","","","","","","",""
"","","","","","html-button-response","1","2.0.0","15577","8E5548975087426F87AB9CE79DC20E49","7923cc5b-9301-42f0-b40a-8aac5c9562bf","c9908d3c-c6c0-4ff0-8197-ad6b853728e6","consent","11938","<p><b>Consent Form</b></p> <div style=""text-align:left;background-color:lightblue; padding:2vw; max-width:80vw;""><p><b>Purpose:</b> The purpose of this study is to understand how people think about the physical and social world.</p><p><b>Procedures:</b> In this study, you will watch videos, read sentences, or see pictures, and answer simple questions about them. This study should take approximately 30 minutes</p><p><b>Participation:</b> Participation in this study is voluntary. If you decide to join now, you can change your mind later. </p><p><b>Payment:</b> You will be paid $15.00/hour for participating in this study. Given the estimated duration of 30 minutes, your payment will amount to $7.50.</p><p><b>Risks and benefits:</b> There are no risks associated with participating in this study. There are no direct benefits associated with participating in this study. </p><p><b>Use of data by study researchers:</b> The research team led by Shari Liu at JHU will have access to your answers. </p><p><b>Publication of results:</b> The results of the research may be presented at scientific meetings or published in scientific journals. Your individual responses may be published. We will never publish your name, the date that you participated, and any other information that could be used to identify you. </p><p><b>Researcher contact information:</b> This study is run by Dr. Shari Liu at JHU. If you have any questions or concerns about this study, or in the very unlikely event of a research-related injury, please contact sliu199@jhu.edu. </p><p><b>Research rights information:</b> If you have questions about your rights as a research participant or feel that you have not been treated fairly, please call the Homewood Institutional Review Board at Johns Hopkins University at (410) 516-6580. If you have any questions or issues completing the survey, please email Shari Liu at sliu199@jhu.edu. </p> </div><p> Do you consent to participate? </p>","0","","","","","","","","","","","","","","","","","","","","","","","","","",""
"","","","","","instructions","2","2.0.0","85754","8E5548975087426F87AB9CE79DC20E49","7923cc5b-9301-42f0-b40a-8aac5c9562bf","c9908d3c-c6c0-4ff0-8197-ad6b853728e6","","70175","","","[{""page_index"":0,""viewing_time"":70175}]","","","","","","","","","","","","","","","","","","","","","","","","",""
"","","","","","instructions","3","2.0.0","167264","8E5548975087426F87AB9CE79DC20E49","7923cc5b-9301-42f0-b40a-8aac5c9562bf","c9908d3c-c6c0-4ff0-8197-ad6b853728e6","","81510","","","[{""page_index"":0,""viewing_time"":81510}]","","","","","","","","","","","","","","","","","","","","","","","","",""
"","","","","","video-button-response","4","2.0.0","199257","8E5548975087426F87AB9CE79DC20E49","7923cc5b-9301-42f0-b40a-8aac5c9562bf","c9908d3c-c6c0-4ff0-8197-ad6b853728e6","example_videos","31990","[""video/example-video-circles.mp4""]","0","","","","","","","","","","","","","","","","","","","","","","","","","",""
"","","","","","free-sort","5","2.0.1","518402","8E5548975087426F87AB9CE79DC20E49","7923cc5b-9301-42f0-b40a-8aac5c9562bf","c9908d3c-c6c0-4ff0-8197-ad6b853728e6","","319141","","","","[{""src"":""images/items-circles/img5.png"",""x"":610.4166666666667,""y"":0},{""src"":""images/items-circles/img3.png"",""x"":-60.41666666666666,""y"":550},{""src"":""images/items-circles/img4.png"",""x"":610.4166666666667,""y"":183.33333333333334},{""src"":""images/items-circles/img2.png"",""x"":-60.41666666666666,""y"":366.6666666666667},{""src"":""images/items-circles/img1.png"",""x"":610.4166666666667,""y"":366.6666666666667},{""src"":""images/items-circles/img7.png"",""x"":-60.41666666666666,""y"":183.33333333333334},{""src"":""images/items-circles/img14.png"",""x"":610.4166666666667,""y"":550},{""src"":""images/items-circles/img10.png"",""x"":-60.41666666666666,""y"":0},{""src"":""images/items-circles/img13.png"",""x"":793.75,""y"":0},{""src"":""images/items-circles/img6.png"",""x"":-243.75,""y"":550},{""src"":""images/items-circles/img11.png"",""x"":793.75,""y"":183.33333333333334},{""src"":""images/items-circles/img12.png"",""x"":-243.75,""y"":366.6666666666667},{""src"":""images/items-circles/img9.png"",""x"":793.75,""y"":366.6666666666667},{""src"":""images/items-circles/img15.png"",""x"":-243.75,""y"":183.33333333333334},{""src"":""images/items-circles/img8.png"",""x"":793.75,""y"":550}]","[{""src"":""images/items-circles/img10.png"",""x"":160,""y"":96},{""src"":""images/items-circles/img7.png"",""x"":74,""y"":295},{""src"":""images/items-circles/img10.png"",""x"":274,""y"":52},{""src"":""images/items-circles/img2.png"",""x"":60,""y"":365},{""src"":""images/items-circles/img3.png"",""x"":442,""y"":138},{""src"":""images/items-circles/img12.png"",""x"":276,""y"":419},{""src"":""images/items-circles/img12.png"",""x"":274,""y"":457},{""src"":""images/items-circles/img2.png"",""x"":52,""y"":223},{""src"":""images/items-circles/img6.png"",""x"":196,""y"":428},{""src"":""images/items-circles/img15.png"",""x"":422,""y"":349},{""src"":""images/items-circles/img14.png"",""x"":308,""y"":386},{""src"":""images/items-circles/img6.png"",""x"":134,""y"":418},{""src"":""images/items-circles/img8.png"",""x"":186,""y"":76},{""src"":""images/items-circles/img11.png"",""x"":362,""y"":53},{""src"":""images/items-circles/img13.png"",""x"":356,""y"":450},{""src"":""images/items-circles/img6.png"",""x"":168,""y"":390},{""src"":""images/items-circles/img1.png"",""x"":210,""y"":237},{""src"":""images/items-circles/img4.png"",""x"":510,""y"":253},{""src"":""images/items-circles/img9.png"",""x"":260,""y"":119},{""src"":""images/items-circles/img5.png"",""x"":376,""y"":214},{""src"":""images/items-circles/img3.png"",""x"":442,""y"":138},{""src"":""images/items-circles/img15.png"",""x"":392,""y"":383},{""src"":""images/items-circles/img6.png"",""x"":188,""y"":392},{""src"":""images/items-circles/img2.png"",""x"":96,""y"":161},{""src"":""images/items-circles/img7.png"",""x"":50,""y"":263},{""src"":""images/items-circles/img6.png"",""x"":90,""y"":386},{""src"":""images/items-circles/img12.png"",""x"":178,""y"":467},{""src"":""images/items-circles/img14.png"",""x"":260,""y"":500},{""src"":""images/items-circles/img13.png"",""x"":356,""y"":492},{""src"":""images/items-circles/img15.png"",""x"":440,""y"":449},{""src"":""images/items-circles/img1.png"",""x"":284,""y"":341},{""src"":""images/items-circles/img5.png"",""x"":376,""y"":214},{""src"":""images/items-circles/img4.png"",""x"":516,""y"":269},{""src"":""images/items-circles/img3.png"",""x"":488,""y"":170},{""src"":""images/items-circles/img5.png"",""x"":398,""y"":234},{""src"":""images/items-circles/img3.png"",""x"":442,""y"":140},{""src"":""images/items-circles/img4.png"",""x"":512,""y"":227},{""src"":""images/items-circles/img3.png"",""x"":452,""y"":124},{""src"":""images/items-circles/img5.png"",""x"":514,""y"":342},{""src"":""images/items-circles/img14.png"",""x"":260,""y"":520},{""src"":""images/items-circles/img12.png"",""x"":242,""y"":451},{""src"":""images/items-circles/img13.png"",""x"":334,""y"":524},{""src"":""images/items-circles/img15.png"",""x"":418,""y"":487},{""src"":""images/items-circles/img12.png"",""x"":192,""y"":513},{""src"":""images/items-circles/img14.png"",""x"":260,""y"":520},{""src"":""images/items-circles/img14.png"",""x"":258,""y"":524},{""src"":""images/items-circles/img12.png"",""x"":294,""y"":519},{""src"":""images/items-circles/img14.png"",""x"":196,""y"":512},{""src"":""images/items-circles/img12.png"",""x"":254,""y"":521},{""src"":""images/items-circles/img14.png"",""x"":186,""y"":504},{""src"":""images/items-circles/img2.png"",""x"":110,""y"":147},{""src"":""images/items-circles/img2.png"",""x"":110,""y"":147},{""src"":""images/items-circles/img2.png"",""x"":114,""y"":145},{""src"":""images/items-circles/img2.png"",""x"":114,""y"":145},{""src"":""images/items-circles/img3.png"",""x"":456,""y"":122},{""src"":""images/items-circles/img5.png"",""x"":508,""y"":366},{""src"":""images/items-circles/img4.png"",""x"":510,""y"":241},{""src"":""images/items-circles/img1.png"",""x"":298,""y"":371},{""src"":""images/items-circles/img2.png"",""x"":136,""y"":135},{""src"":""images/items-circles/img5.png"",""x"":522,""y"":346},{""src"":""images/items-circles/img3.png"",""x"":482,""y"":140},{""src"":""images/items-circles/img1.png"",""x"":302,""y"":409},{""src"":""images/items-circles/img6.png"",""x"":426,""y"":226},{""src"":""images/items-circles/img4.png"",""x"":520,""y"":211},{""src"":""images/items-circles/img4.png"",""x"":524,""y"":239},{""src"":""images/items-circles/img6.png"",""x"":398,""y"":252},{""src"":""images/items-circles/img5.png"",""x"":526,""y"":314},{""src"":""images/items-circles/img3.png"",""x"":500,""y"":152},{""src"":""images/items-circles/img6.png"",""x"":412,""y"":246},{""src"":""images/items-circles/img7.png"",""x"":410,""y"":253},{""src"":""images/items-circles/img6.png"",""x"":402,""y"":180},{""src"":""images/items-circles/img7.png"",""x"":420,""y"":283}]","[{""src"":""images/items-circles/img5.png"",""x"":526,""y"":314},{""src"":""images/items-circles/img3.png"",""x"":500,""y"":152},{""src"":""images/items-circles/img4.png"",""x"":524,""y"":239},{""src"":""images/items-circles/img2.png"",""x"":136,""y"":135},{""src"":""images/items-circles/img1.png"",""x"":302,""y"":409},{""src"":""images/items-circles/img7.png"",""x"":420,""y"":283},{""src"":""images/items-circles/img14.png"",""x"":186,""y"":504},{""src"":""images/items-circles/img10.png"",""x"":274,""y"":52},{""src"":""images/items-circles/img13.png"",""x"":334,""y"":524},{""src"":""images/items-circles/img6.png"",""x"":402,""y"":180},{""src"":""images/items-circles/img11.png"",""x"":362,""y"":53},{""src"":""images/items-circles/img12.png"",""x"":254,""y"":521},{""src"":""images/items-circles/img9.png"",""x"":260,""y"":119},{""src"":""images/items-circles/img15.png"",""x"":418,""y"":487},{""src"":""images/items-circles/img8.png"",""x"":186,""y"":76}]","","","","","","","","","","","","","","","","","","","","","",""
"","","","","","instructions","6","2.0.0","528201","8E5548975087426F87AB9CE79DC20E49","7923cc5b-9301-42f0-b40a-8aac5c9562bf","c9908d3c-c6c0-4ff0-8197-ad6b853728e6","","9798","","","[{""page_index"":0,""viewing_time"":9798}]","","","","","","","","","","","","","","","","","","","","","","","","",""
"","","","","","survey-slider","7","null","609292","8E5548975087426F87AB9CE79DC20E49","7923cc5b-9301-42f0-b40a-8aac5c9562bf","c9908d3c-c6c0-4ff0-8197-ad6b853728e6","","81085.59999999404","","{""Q0"":""74"",""Q1"":""100"",""Q2"":""100"",""Q3"":""25"",""Q4"":""74"",""Q5"":""74"",""Q6"":""100"",""Q7"":""100"",""Q8"":""24"",""Q9"":""26"",""Q10"":""25"",""Q11"":""73"",""Q12"":""100"",""Q13"":""72"",""Q14"":""100""}","","","","","{""itemA"":""take a walk"",""itemB"":""remember something"",""categoryA"":""physical"",""categoryB"":""cognitive"",""attention_check"":false,""correct_response"":null}","{""itemA"":""see something"",""itemB"":""remember something"",""categoryA"":""cognitive"",""categoryB"":""cognitive"",""attention_check"":false,""correct_response"":null}","{""itemA"":""remember something"",""itemB"":""remember something"",""categoryA"":""cognitive"",""categoryB"":""cognitive"",""attention_check"":false,""correct_response"":null}","{""itemA"":""get tired"",""itemB"":""remember something"",""categoryA"":""physiological"",""categoryB"":""cognitive"",""attention_check"":false,""correct_response"":null}","{""itemA"":""reach for something"",""itemB"":""remember something"",""categoryA"":""physical"",""categoryB"":""cognitive"",""attention_check"":false,""correct_response"":null}","{""itemA"":""sit down"",""itemB"":""remember something"",""categoryA"":""physical"",""categoryB"":""cognitive"",""attention_check"":false,""correct_response"":null}","{""itemA"":""choose what to do"",""itemB"":""remember something"",""categoryA"":""cognitive"",""categoryB"":""cognitive"",""attention_check"":false,""correct_response"":null}","{""itemA"":""feel scared"",""itemB"":""remember something"",""categoryA"":""physiological"",""categoryB"":""cognitive"",""attention_check"":false,""correct_response"":null}","{""itemA"":""kick something"",""itemB"":""remember something"",""categoryA"":""physical"",""categoryB"":""cognitive"",""attention_check"":false,""correct_response"":null}","{""itemA"":""jump up and down"",""itemB"":""remember something"",""categoryA"":""physical"",""categoryB"":""cognitive"",""attention_check"":false,""correct_response"":null}","{""itemA"":""get sick"",""itemB"":""remember something"",""categoryA"":""physiological"",""categoryB"":""cognitive"",""attention_check"":false,""correct_response"":null}","{""itemA"":""become hungry"",""itemB"":""remember something"",""categoryA"":""physiological"",""categoryB"":""cognitive"",""attention_check"":false,""correct_response"":null}","{""itemA"":""hear something"",""itemB"":""remember something"",""categoryA"":""cognitive"",""categoryB"":""cognitive"",""attention_check"":false,""correct_response"":null}","{""itemA"":""experience pain"",""itemB"":""remember something"",""categoryA"":""physiological"",""categoryB"":""cognitive"",""attention_check"":false,""correct_response"":null}","{""itemA"":""think about something"",""itemB"":""remember something"",""categoryA"":""cognitive"",""categoryB"":""cognitive"",""attention_check"":false,""correct_response"":null}","[0,1,2,3,4,5,6,7,8,9,10,11,12,13,14]","","","","","",""
"","","","","","survey-slider","8","null","684658","8E5548975087426F87AB9CE79DC20E49","7923cc5b-9301-42f0-b40a-8aac5c9562bf","c9908d3c-c6c0-4ff0-8197-ad6b853728e6","","75362.19999998808","","{""Q0"":""100"",""Q1"":""74"",""Q2"":""100"",""Q3"":""24"",""Q4"":""75"",""Q5"":""76"",""Q6"":""74"",""Q7"":""86"",""Q8"":""100"",""Q9"":""37"",""Q10"":""37"",""Q11"":""38"",""Q12"":""74"",""Q13"":""100"",""Q14"":""24""}","","","","","{""itemA"":""kick something"",""itemB"":""hear something"",""categoryA"":""physical"",""categoryB"":""cognitive"",""attention_check"":false,""correct_response"":null}","{""itemA"":""feel scared"",""itemB"":""hear something"",""categoryA"":""physiological"",""categoryB"":""cognitive"",""attention_check"":false,""correct_response"":null}","{""itemA"":""hear something"",""itemB"":""hear something"",""categoryA"":""cognitive"",""categoryB"":""cognitive"",""attention_check"":false,""correct_response"":null}","{""itemA"":""choose what to do"",""itemB"":""hear something"",""categoryA"":""cognitive"",""categoryB"":""cognitive"",""attention_check"":false,""correct_response"":null}","{""itemA"":""jump up and down"",""itemB"":""hear something"",""categoryA"":""physical"",""categoryB"":""cognitive"",""attention_check"":false,""correct_response"":null}","{""itemA"":""become hungry"",""itemB"":""hear something"",""categoryA"":""physiological"",""categoryB"":""cognitive"",""attention_check"":false,""correct_response"":null}","{""itemA"":""get sick"",""itemB"":""hear something"",""categoryA"":""physiological"",""categoryB"":""cognitive"",""attention_check"":false,""correct_response"":null}","{""itemA"":""get tired"",""itemB"":""hear something"",""categoryA"":""physiological"",""categoryB"":""cognitive"",""attention_check"":false,""correct_response"":null}","{""itemA"":""take a walk"",""itemB"":""hear something"",""categoryA"":""physical"",""categoryB"":""cognitive"",""attention_check"":false,""correct_response"":null}","{""itemA"":""see something"",""itemB"":""hear something"",""categoryA"":""cognitive"",""categoryB"":""cognitive"",""attention_check"":false,""correct_response"":null}","{""itemA"":""remember something"",""itemB"":""hear something"",""categoryA"":""cognitive"",""categoryB"":""cognitive"",""attention_check"":false,""correct_response"":null}","{""itemA"":""think about something"",""itemB"":""hear something"",""categoryA"":""cognitive"",""categoryB"":""cognitive"",""attention_check"":false,""correct_response"":null}","{""itemA"":""reach for something"",""itemB"":""hear something"",""categoryA"":""physical"",""categoryB"":""cognitive"",""attention_check"":false,""correct_response"":null}","{""itemA"":""experience pain"",""itemB"":""hear something"",""categoryA"":""physiological"",""categoryB"":""cognitive"",""attention_check"":false,""correct_response"":null}","{""itemA"":""sit down"",""itemB"":""hear something"",""categoryA"":""physical"",""categoryB"":""cognitive"",""attention_check"":false,""correct_response"":null}","[0,1,2,3,4,5,6,7,8,9,10,11,12,13,14]","","","","","",""
"","","","","","survey-slider","9","null","765252","8E5548975087426F87AB9CE79DC20E49","7923cc5b-9301-42f0-b40a-8aac5c9562bf","c9908d3c-c6c0-4ff0-8197-ad6b853728e6","","80588.39999999106","","{""Q0"":""74"",""Q1"":""100"",""Q2"":""25"",""Q3"":""0"",""Q4"":""75"",""Q5"":""75"",""Q6"":""74"",""Q7"":""25"",""Q8"":""0"",""Q9"":""75"",""Q10"":""76"",""Q11"":""0"",""Q12"":""75"",""Q13"":""100"",""Q14"":""76""}","","","","","{""itemA"":""become hungry"",""itemB"":""jump up and down"",""categoryA"":""physiological"",""categoryB"":""physical"",""attention_check"":false,""correct_response"":null}","{""itemA"":""jump up and down"",""itemB"":""jump up and down"",""categoryA"":""physical"",""categoryB"":""physical"",""attention_check"":false,""correct_response"":null}","{""itemA"":""take a walk"",""itemB"":""jump up and down"",""categoryA"":""physical"",""categoryB"":""physical"",""attention_check"":false,""correct_response"":null}","{""itemA"":""reach for something"",""itemB"":""jump up and down"",""categoryA"":""physical"",""categoryB"":""physical"",""attention_check"":false,""correct_response"":null}","{""itemA"":""choose what to do"",""itemB"":""jump up and down"",""categoryA"":""cognitive"",""categoryB"":""physical"",""attention_check"":false,""correct_response"":null}","{""itemA"":""kick something"",""itemB"":""jump up and down"",""categoryA"":""physical"",""categoryB"":""physical"",""attention_check"":false,""correct_response"":null}","{""itemA"":""see something"",""itemB"":""jump up and down"",""categoryA"":""cognitive"",""categoryB"":""physical"",""attention_check"":false,""correct_response"":null}","{""itemA"":""get sick"",""itemB"":""jump up and down"",""categoryA"":""physiological"",""categoryB"":""physical"",""attention_check"":false,""correct_response"":null}","{""itemA"":""get tired"",""itemB"":""jump up and down"",""categoryA"":""physiological"",""categoryB"":""physical"",""attention_check"":false,""correct_response"":null}","{""itemA"":""hear something"",""itemB"":""jump up and down"",""categoryA"":""cognitive"",""categoryB"":""physical"",""attention_check"":false,""correct_response"":null}","{""itemA"":""feel scared"",""itemB"":""jump up and down"",""categoryA"":""physiological"",""categoryB"":""physical"",""attention_check"":false,""correct_response"":null}","{""itemA"":""sit down"",""itemB"":""jump up and down"",""categoryA"":""physical"",""categoryB"":""physical"",""attention_check"":false,""correct_response"":null}","{""itemA"":""remember something"",""itemB"":""jump up and down"",""categoryA"":""cognitive"",""categoryB"":""physical"",""attention_check"":false,""correct_response"":null}","{""itemA"":""experience pain"",""itemB"":""jump up and down"",""categoryA"":""physiological"",""categoryB"":""physical"",""attention_check"":false,""correct_response"":null}","{""itemA"":""think about something"",""itemB"":""jump up and down"",""categoryA"":""cognitive"",""categoryB"":""physical"",""attention_check"":false,""correct_response"":null}","[0,1,2,3,4,5,6,7,8,9,10,11,12,13,14]","","","","","",""
"","","","","","survey-slider","10","null","858146","8E5548975087426F87AB9CE79DC20E49","7923cc5b-9301-42f0-b40a-8aac5c9562bf","c9908d3c-c6c0-4ff0-8197-ad6b853728e6","","92890.30000001192","","{""Q0"":""100"",""Q1"":""75"",""Q2"":""75"",""Q3"":""75"",""Q4"":""100"",""Q5"":""0"",""Q6"":""100"",""Q7"":""74"",""Q8"":""100"",""Q9"":""75"",""Q10"":""100"",""Q11"":""100"",""Q12"":""100"",""Q13"":""24"",""Q14"":""100"",""Q15"":""100""}","","","","","{""itemA"":""feel scared"",""itemB"":""reach for something"",""categoryA"":""physiological"",""categoryB"":""physical"",""attention_check"":false,""correct_response"":null}","{""itemA"":""get tired"",""itemB"":""reach for something"",""categoryA"":""physiological"",""categoryB"":""physical"",""attention_check"":false,""correct_response"":null}","{""itemA"":""sit down"",""itemB"":""reach for something"",""categoryA"":""physical"",""categoryB"":""physical"",""attention_check"":false,""correct_response"":null}","{""itemA"":""hear something"",""itemB"":""reach for something"",""categoryA"":""cognitive"",""categoryB"":""physical"",""attention_check"":false,""correct_response"":null}","{""itemA"":""see something"",""itemB"":""reach for something"",""categoryA"":""cognitive"",""categoryB"":""physical"",""attention_check"":false,""correct_response"":null}","{""itemA"":null,""itemB"":null,""categoryA"":null,""categoryB"":null,""attention_check"":true,""correct_response"":null}","{""itemA"":""become hungry"",""itemB"":""reach for something"",""categoryA"":""physiological"",""categoryB"":""physical"",""attention_check"":false,""correct_response"":null}","{""itemA"":""kick something"",""itemB"":""reach for something"",""categoryA"":""physical"",""categoryB"":""physical"",""attention_check"":false,""correct_response"":null}","{""itemA"":""think about something"",""itemB"":""reach for something"",""categoryA"":""cognitive"",""categoryB"":""physical"",""attention_check"":false,""correct_response"":null}","{""itemA"":""jump up and down"",""itemB"":""reach for something"",""categoryA"":""physical"",""categoryB"":""physical"",""attention_check"":false,""correct_response"":null}","{""itemA"":""get sick"",""itemB"":""reach for something"",""categoryA"":""physiological"",""categoryB"":""physical"",""attention_check"":false,""correct_response"":null}","{""itemA"":""remember something"",""itemB"":""reach for something"",""categoryA"":""cognitive"",""categoryB"":""physical"",""attention_check"":false,""correct_response"":null}","{""itemA"":""reach for something"",""itemB"":""reach for something"",""categoryA"":""physical"",""categoryB"":""physical"",""attention_check"":false,""correct_response"":null}","{""itemA"":""take a walk"",""itemB"":""reach for something"",""categoryA"":""physical"",""categoryB"":""physical"",""attention_check"":false,""correct_response"":null}","{""itemA"":""experience pain"",""itemB"":""reach for something"",""categoryA"":""physiological"",""categoryB"":""physical"",""attention_check"":false,""correct_response"":null}","[0,1,2,3,4,5,6,7,8,9,10,11,12,13,14,15]","{""itemA"":""choose what to do"",""itemB"":""reach for something"",""categoryA"":""cognitive"",""categoryB"":""physical"",""attention_check"":false,""correct_response"":null}","","","","",""
"","","","","","survey-slider","11","null","925131","8E5548975087426F87AB9CE79DC20E49","7923cc5b-9301-42f0-b40a-8aac5c9562bf","c9908d3c-c6c0-4ff0-8197-ad6b853728e6","","66980.79999999702","","{""Q0"":""74"",""Q1"":""100"",""Q2"":""61"",""Q3"":""100"",""Q4"":""100"",""Q5"":""100"",""Q6"":""23"",""Q7"":""100"",""Q8"":""23"",""Q9"":""74"",""Q10"":""100"",""Q11"":""73"",""Q12"":""0"",""Q13"":""100"",""Q14"":""0""}","","","","","{""itemA"":""take a walk"",""itemB"":""get sick"",""categoryA"":""physical"",""categoryB"":""physiological"",""attention_check"":false,""correct_response"":null}","{""itemA"":""jump up and down"",""itemB"":""get sick"",""categoryA"":""physical"",""categoryB"":""physiological"",""attention_check"":false,""correct_response"":null}","{""itemA"":""become hungry"",""itemB"":""get sick"",""categoryA"":""physiological"",""categoryB"":""physiological"",""attention_check"":false,""correct_response"":null}","{""itemA"":""feel scared"",""itemB"":""get sick"",""categoryA"":""physiological"",""categoryB"":""physiological"",""attention_check"":false,""correct_response"":null}","{""itemA"":""remember something"",""itemB"":""get sick"",""categoryA"":""cognitive"",""categoryB"":""physiological"",""attention_check"":false,""correct_response"":null}","{""itemA"":""hear something"",""itemB"":""get sick"",""categoryA"":""cognitive"",""categoryB"":""physiological"",""attention_check"":false,""correct_response"":null}","{""itemA"":""reach for something"",""itemB"":""get sick"",""categoryA"":""physical"",""categoryB"":""physiological"",""attention_check"":false,""correct_response"":null}","{""itemA"":""get sick"",""itemB"":""get sick"",""categoryA"":""physiological"",""categoryB"":""physiological"",""attention_check"":false,""correct_response"":null}","{""itemA"":""sit down"",""itemB"":""get sick"",""categoryA"":""physical"",""categoryB"":""physiological"",""attention_check"":false,""correct_response"":null}","{""itemA"":""kick something"",""itemB"":""get sick"",""categoryA"":""physical"",""categoryB"":""physiological"",""attention_check"":false,""correct_response"":null}","{""itemA"":""think about something"",""itemB"":""get sick"",""categoryA"":""cognitive"",""categoryB"":""physiological"",""attention_check"":false,""correct_response"":null}","{""itemA"":""experience pain"",""itemB"":""get sick"",""categoryA"":""physiological"",""categoryB"":""physiological"",""attention_check"":false,""correct_response"":null}","{""itemA"":""choose what to do"",""itemB"":""get sick"",""categoryA"":""cognitive"",""categoryB"":""physiological"",""attention_check"":false,""correct_response"":null}","{""itemA"":""see something"",""itemB"":""get sick"",""categoryA"":""cognitive"",""categoryB"":""physiological"",""attention_check"":false,""correct_response"":null}","{""itemA"":""get tired"",""itemB"":""get sick"",""categoryA"":""physiological"",""categoryB"":""physiological"",""attention_check"":false,""correct_response"":null}","[0,1,2,3,4,5,6,7,8,9,10,11,12,13,14]","","","","","",""
"","","","","","survey-slider","12","null","1024828","8E5548975087426F87AB9CE79DC20E49","7923cc5b-9301-42f0-b40a-8aac5c9562bf","c9908d3c-c6c0-4ff0-8197-ad6b853728e6","","99693.20000000298","","{""Q0"":""74"",""Q1"":""0"",""Q2"":""22"",""Q3"":""74"",""Q4"":""0"",""Q5"":""100"",""Q6"":""100"",""Q7"":""26"",""Q8"":""75"",""Q9"":""100"",""Q10"":""100"",""Q11"":""73"",""Q12"":""23"",""Q13"":""100"",""Q14"":""100""}","","","","","{""itemA"":""get sick"",""itemB"":""kick something"",""categoryA"":""physiological"",""categoryB"":""physical"",""attention_check"":false,""correct_response"":null}","{""itemA"":""take a walk"",""itemB"":""kick something"",""categoryA"":""physical"",""categoryB"":""physical"",""attention_check"":false,""correct_response"":null}","{""itemA"":""reach for something"",""itemB"":""kick something"",""categoryA"":""physical"",""categoryB"":""physical"",""attention_check"":false,""correct_response"":null}","{""itemA"":""kick something"",""itemB"":""kick something"",""categoryA"":""physical"",""categoryB"":""physical"",""attention_check"":false,""correct_response"":null}","{""itemA"":""sit down"",""itemB"":""kick something"",""categoryA"":""physical"",""categoryB"":""physical"",""attention_check"":false,""correct_response"":null}","{""itemA"":""see something"",""itemB"":""kick something"",""categoryA"":""cognitive"",""categoryB"":""physical"",""attention_check"":false,""correct_response"":null}","{""itemA"":""remember something"",""itemB"":""kick something"",""categoryA"":""cognitive"",""categoryB"":""physical"",""attention_check"":false,""correct_response"":null}","{""itemA"":""jump up and down"",""itemB"":""kick something"",""categoryA"":""physical"",""categoryB"":""physical"",""attention_check"":false,""correct_response"":null}","{""itemA"":""become hungry"",""itemB"":""kick something"",""categoryA"":""physiological"",""categoryB"":""physical"",""attention_check"":false,""correct_response"":null}","{""itemA"":""hear something"",""itemB"":""kick something"",""categoryA"":""cognitive"",""categoryB"":""physical"",""attention_check"":false,""correct_response"":null}","{""itemA"":""think about something"",""itemB"":""kick something"",""categoryA"":""cognitive"",""categoryB"":""physical"",""attention_check"":false,""correct_response"":null}","{""itemA"":""choose what to do"",""itemB"":""kick something"",""categoryA"":""cognitive"",""categoryB"":""physical"",""attention_check"":false,""correct_response"":null}","{""itemA"":""get tired"",""itemB"":""kick something"",""categoryA"":""physiological"",""categoryB"":""physical"",""attention_check"":false,""correct_response"":null}","{""itemA"":""experience pain"",""itemB"":""kick something"",""categoryA"":""physiological"",""categoryB"":""physical"",""attention_check"":false,""correct_response"":null}","{""itemA"":""feel scared"",""itemB"":""kick something"",""categoryA"":""physiological"",""categoryB"":""physical"",""attention_check"":false,""correct_response"":null}","[0,1,2,3,4,5,6,7,8,9,10,11,12,13,14]","","","","","",""
"","","","","","survey-slider","13","null","1106460","8E5548975087426F87AB9CE79DC20E49","7923cc5b-9301-42f0-b40a-8aac5c9562bf","c9908d3c-c6c0-4ff0-8197-ad6b853728e6","","81628.90000000596","","{""Q0"":""100"",""Q1"":""100"",""Q2"":""100"",""Q3"":""100"",""Q4"":""100"",""Q5"":""100"",""Q6"":""75"",""Q7"":""25"",""Q8"":""100"",""Q9"":""74"",""Q10"":""100"",""Q11"":""0"",""Q12"":""100"",""Q13"":""100"",""Q14"":""100""}","","","","","{""itemA"":""sit down"",""itemB"":""get tired"",""categoryA"":""physical"",""categoryB"":""physiological"",""attention_check"":false,""correct_response"":null}","{""itemA"":""choose what to do"",""itemB"":""get tired"",""categoryA"":""cognitive"",""categoryB"":""physiological"",""attention_check"":false,""correct_response"":null}","{""itemA"":""think about something"",""itemB"":""get tired"",""categoryA"":""cognitive"",""categoryB"":""physiological"",""attention_check"":false,""correct_response"":null}","{""itemA"":""kick something"",""itemB"":""get tired"",""categoryA"":""physical"",""categoryB"":""physiological"",""attention_check"":false,""correct_response"":null}","{""itemA"":""get tired"",""itemB"":""get tired"",""categoryA"":""physiological"",""categoryB"":""physiological"",""attention_check"":false,""correct_response"":null}","{""itemA"":""take a walk"",""itemB"":""get tired"",""categoryA"":""physical"",""categoryB"":""physiological"",""attention_check"":false,""correct_response"":null}","{""itemA"":""hear something"",""itemB"":""get tired"",""categoryA"":""cognitive"",""categoryB"":""physiological"",""attention_check"":false,""correct_response"":null}","{""itemA"":""remember something"",""itemB"":""get tired"",""categoryA"":""cognitive"",""categoryB"":""physiological"",""attention_check"":false,""correct_response"":null}","{""itemA"":""get sick"",""itemB"":""get tired"",""categoryA"":""physiological"",""categoryB"":""physiological"",""attention_check"":false,""correct_response"":null}","{""itemA"":""reach for something"",""itemB"":""get tired"",""categoryA"":""physical"",""categoryB"":""physiological"",""attention_check"":false,""correct_response"":null}","{""itemA"":""jump up and down"",""itemB"":""get tired"",""categoryA"":""physical"",""categoryB"":""physiological"",""attention_check"":false,""correct_response"":null}","{""itemA"":""see something"",""itemB"":""get tired"",""categoryA"":""cognitive"",""categoryB"":""physiological"",""attention_check"":false,""correct_response"":null}","{""itemA"":""feel scared"",""itemB"":""get tired"",""categoryA"":""physiological"",""categoryB"":""physiological"",""attention_check"":false,""correct_response"":null}","{""itemA"":""become hungry"",""itemB"":""get tired"",""categoryA"":""physiological"",""categoryB"":""physiological"",""attention_check"":false,""correct_response"":null}","{""itemA"":""experience pain"",""itemB"":""get tired"",""categoryA"":""physiological"",""categoryB"":""physiological"",""attention_check"":false,""correct_response"":null}","[0,1,2,3,4,5,6,7,8,9,10,11,12,13,14]","","","","","",""
"","","","","","survey-slider","14","null","1205539","8E5548975087426F87AB9CE79DC20E49","7923cc5b-9301-42f0-b40a-8aac5c9562bf","c9908d3c-c6c0-4ff0-8197-ad6b853728e6","","99076.20000000298","","{""Q0"":""87"",""Q1"":""100"",""Q2"":""75"",""Q3"":""0"",""Q4"":""100"",""Q5"":""74"",""Q6"":""100"",""Q7"":""74"",""Q8"":""75"",""Q9"":""100"",""Q10"":""100"",""Q11"":""100"",""Q12"":""100"",""Q13"":""100"",""Q14"":""100"",""Q15"":""100""}","","","","","{""itemA"":""choose what to do"",""itemB"":""sit down"",""categoryA"":""cognitive"",""categoryB"":""physical"",""attention_check"":false,""correct_response"":null}","{""itemA"":""become hungry"",""itemB"":""sit down"",""categoryA"":""physiological"",""categoryB"":""physical"",""attention_check"":false,""correct_response"":null}","{""itemA"":null,""itemB"":null,""categoryA"":null,""categoryB"":null,""attention_check"":true,""correct_response"":75}","{""itemA"":""reach for something"",""itemB"":""sit down"",""categoryA"":""physical"",""categoryB"":""physical"",""attention_check"":false,""correct_response"":null}","{""itemA"":""sit down"",""itemB"":""sit down"",""categoryA"":""physical"",""categoryB"":""physical"",""attention_check"":false,""correct_response"":null}","{""itemA"":""remember something"",""itemB"":""sit down"",""categoryA"":""cognitive"",""categoryB"":""physical"",""attention_check"":false,""correct_response"":null}","{""itemA"":""get tired"",""itemB"":""sit down"",""categoryA"":""physiological"",""categoryB"":""physical"",""attention_check"":false,""correct_response"":null}","{""itemA"":""think about something"",""itemB"":""sit down"",""categoryA"":""cognitive"",""categoryB"":""physical"",""attention_check"":false,""correct_response"":null}","{""itemA"":""see something"",""itemB"":""sit down"",""categoryA"":""cognitive"",""categoryB"":""physical"",""attention_check"":false,""correct_response"":null}","{""itemA"":""feel scared"",""itemB"":""sit down"",""categoryA"":""physiological"",""categoryB"":""physical"",""attention_check"":false,""correct_response"":null}","{""itemA"":""hear something"",""itemB"":""sit down"",""categoryA"":""cognitive"",""categoryB"":""physical"",""attention_check"":false,""correct_response"":null}","{""itemA"":""get sick"",""itemB"":""sit down"",""categoryA"":""physiological"",""categoryB"":""physical"",""attention_check"":false,""correct_response"":null}","{""itemA"":""kick something"",""itemB"":""sit down"",""categoryA"":""physical"",""categoryB"":""physical"",""attention_check"":false,""correct_response"":null}","{""itemA"":""take a walk"",""itemB"":""sit down"",""categoryA"":""physical"",""categoryB"":""physical"",""attention_check"":false,""correct_response"":null}","{""itemA"":""experience pain"",""itemB"":""sit down"",""categoryA"":""physiological"",""categoryB"":""physical"",""attention_check"":false,""correct_response"":null}","[0,1,2,3,4,5,6,7,8,9,10,11,12,13,14,15]","{""itemA"":""jump up and down"",""itemB"":""sit down"",""categoryA"":""physical"",""categoryB"":""physical"",""attention_check"":false,""correct_response"":null}","","","","",""
"","","","","","survey-slider","15","null","1271188","8E5548975087426F87AB9CE79DC20E49","7923cc5b-9301-42f0-b40a-8aac5c9562bf","c9908d3c-c6c0-4ff0-8197-ad6b853728e6","","65644.79999999702","","{""Q0"":""100"",""Q1"":""100"",""Q2"":""100"",""Q3"":""74"",""Q4"":""74"",""Q5"":""75"",""Q6"":""100"",""Q7"":""74"",""Q8"":""25"",""Q9"":""74"",""Q10"":""100"",""Q11"":""100"",""Q12"":""100"",""Q13"":""100"",""Q14"":""100""}","","","","","{""itemA"":""remember something"",""itemB"":""choose what to do"",""categoryA"":""cognitive"",""categoryB"":""cognitive"",""attention_check"":false,""correct_response"":null}","{""itemA"":""feel scared"",""itemB"":""choose what to do"",""categoryA"":""physiological"",""categoryB"":""cognitive"",""attention_check"":false,""correct_response"":null}","{""itemA"":""get sick"",""itemB"":""choose what to do"",""categoryA"":""physiological"",""categoryB"":""cognitive"",""attention_check"":false,""correct_response"":null}","{""itemA"":""jump up and down"",""itemB"":""choose what to do"",""categoryA"":""physical"",""categoryB"":""cognitive"",""attention_check"":false,""correct_response"":null}","{""itemA"":""kick something"",""itemB"":""choose what to do"",""categoryA"":""physical"",""categoryB"":""cognitive"",""attention_check"":false,""correct_response"":null}","{""itemA"":""sit down"",""itemB"":""choose what to do"",""categoryA"":""physical"",""categoryB"":""cognitive"",""attention_check"":false,""correct_response"":null}","{""itemA"":""become hungry"",""itemB"":""choose what to do"",""categoryA"":""physiological"",""categoryB"":""cognitive"",""attention_check"":false,""correct_response"":null}","{""itemA"":""get tired"",""itemB"":""choose what to do"",""categoryA"":""physiological"",""categoryB"":""cognitive"",""attention_check"":false,""correct_response"":null}","{""itemA"":""reach for something"",""itemB"":""choose what to do"",""categoryA"":""physical"",""categoryB"":""cognitive"",""attention_check"":false,""correct_response"":null}","{""itemA"":""take a walk"",""itemB"":""choose what to do"",""categoryA"":""physical"",""categoryB"":""cognitive"",""attention_check"":false,""correct_response"":null}","{""itemA"":""hear something"",""itemB"":""choose what to do"",""categoryA"":""cognitive"",""categoryB"":""cognitive"",""attention_check"":false,""correct_response"":null}","{""itemA"":""think about something"",""itemB"":""choose what to do"",""categoryA"":""cognitive"",""categoryB"":""cognitive"",""attention_check"":false,""correct_response"":null}","{""itemA"":""see something"",""itemB"":""choose what to do"",""categoryA"":""cognitive"",""categoryB"":""cognitive"",""attention_check"":false,""correct_response"":null}","{""itemA"":""experience pain"",""itemB"":""choose what to do"",""categoryA"":""physiological"",""categoryB"":""cognitive"",""attention_check"":false,""correct_response"":null}","{""itemA"":""choose what to do"",""itemB"":""choose what to do"",""categoryA"":""cognitive"",""categoryB"":""cognitive"",""attention_check"":false,""correct_response"":null}","[0,1,2,3,4,5,6,7,8,9,10,11,12,13,14]","","","","","",""
"","","","","","survey-slider","16","null","1410571","8E5548975087426F87AB9CE79DC20E49","7923cc5b-9301-42f0-b40a-8aac5c9562bf","c9908d3c-c6c0-4ff0-8197-ad6b853728e6","","139379.70000000298","","{""Q0"":""100"",""Q1"":""100"",""Q2"":""0"",""Q3"":""0"",""Q4"":""74"",""Q5"":""100"",""Q6"":""100"",""Q7"":""100"",""Q8"":""75"",""Q9"":""100"",""Q10"":""23"",""Q11"":""25"",""Q12"":""25"",""Q13"":""24"",""Q14"":""74"",""Q15"":""24""}","","","","","{""itemA"":""kick something"",""itemB"":""experience pain"",""categoryA"":""physical"",""categoryB"":""physiological"",""attention_check"":false,""correct_response"":null}","{""itemA"":""get sick"",""itemB"":""experience pain"",""categoryA"":""physiological"",""categoryB"":""physiological"",""attention_check"":false,""correct_response"":null}","{""itemA"":null,""itemB"":null,""categoryA"":null,""categoryB"":null,""attention_check"":true,""correct_response"":null}","{""itemA"":""get tired"",""itemB"":""experience pain"",""categoryA"":""physiological"",""categoryB"":""physiological"",""attention_check"":false,""correct_response"":null}","{""itemA"":""think about something"",""itemB"":""experience pain"",""categoryA"":""cognitive"",""categoryB"":""physiological"",""attention_check"":false,""correct_response"":null}","{""itemA"":""jump up and down"",""itemB"":""experience pain"",""categoryA"":""physical"",""categoryB"":""physiological"",""attention_check"":false,""correct_response"":null}","{""itemA"":""reach for something"",""itemB"":""experience pain"",""categoryA"":""physical"",""categoryB"":""physiological"",""attention_check"":false,""correct_response"":null}","{""itemA"":""take a walk"",""itemB"":""experience pain"",""categoryA"":""physical"",""categoryB"":""physiological"",""attention_check"":false,""correct_response"":null}","{""itemA"":""sit down"",""itemB"":""experience pain"",""categoryA"":""physical"",""categoryB"":""physiological"",""attention_check"":false,""correct_response"":null}","{""itemA"":""experience pain"",""itemB"":""experience pain"",""categoryA"":""physiological"",""categoryB"":""physiological"",""attention_check"":false,""correct_response"":null}","{""itemA"":""become hungry"",""itemB"":""experience pain"",""categoryA"":""physiological"",""categoryB"":""physiological"",""attention_check"":false,""correct_response"":null}","{""itemA"":""see something"",""itemB"":""experience pain"",""categoryA"":""cognitive"",""categoryB"":""physiological"",""attention_check"":false,""correct_response"":null}","{""itemA"":""remember something"",""itemB"":""experience pain"",""categoryA"":""cognitive"",""categoryB"":""physiological"",""attention_check"":false,""correct_response"":null}","{""itemA"":""choose what to do"",""itemB"":""experience pain"",""categoryA"":""cognitive"",""categoryB"":""physiological"",""attention_check"":false,""correct_response"":null}","{""itemA"":""feel scared"",""itemB"":""experience pain"",""categoryA"":""physiological"",""categoryB"":""physiological"",""attention_check"":false,""correct_response"":null}","[0,1,2,3,4,5,6,7,8,9,10,11,12,13,14,15]","{""itemA"":""hear something"",""itemB"":""experience pain"",""categoryA"":""cognitive"",""categoryB"":""physiological"",""attention_check"":false,""correct_response"":null}","","","","",""
"","","","","","survey-slider","17","null","1475659","8E5548975087426F87AB9CE79DC20E49","7923cc5b-9301-42f0-b40a-8aac5c9562bf","c9908d3c-c6c0-4ff0-8197-ad6b853728e6","","65084.90000000596","","{""Q0"":""100"",""Q1"":""75"",""Q2"":""100"",""Q3"":""24"",""Q4"":""0"",""Q5"":""74"",""Q6"":""100"",""Q7"":""0"",""Q8"":""25"",""Q9"":""25"",""Q10"":""74"",""Q11"":""100"",""Q12"":""75"",""Q13"":""25"",""Q14"":""76""}","","","","","{""itemA"":""jump up and down"",""itemB"":""become hungry"",""categoryA"":""physical"",""categoryB"":""physiological"",""attention_check"":false,""correct_response"":null}","{""itemA"":""hear something"",""itemB"":""become hungry"",""categoryA"":""cognitive"",""categoryB"":""physiological"",""attention_check"":false,""correct_response"":null}","{""itemA"":""get tired"",""itemB"":""become hungry"",""categoryA"":""physiological"",""categoryB"":""physiological"",""attention_check"":false,""correct_response"":null}","{""itemA"":""sit down"",""itemB"":""become hungry"",""categoryA"":""physical"",""categoryB"":""physiological"",""attention_check"":false,""correct_response"":null}","{""itemA"":""experience pain"",""itemB"":""become hungry"",""categoryA"":""physiological"",""categoryB"":""physiological"",""attention_check"":false,""correct_response"":null}","{""itemA"":""see something"",""itemB"":""become hungry"",""categoryA"":""cognitive"",""categoryB"":""physiological"",""attention_check"":false,""correct_response"":null}","{""itemA"":""become hungry"",""itemB"":""become hungry"",""categoryA"":""physiological"",""categoryB"":""physiological"",""attention_check"":false,""correct_response"":null}","{""itemA"":""feel scared"",""itemB"":""become hungry"",""categoryA"":""physiological"",""categoryB"":""physiological"",""attention_check"":false,""correct_response"":null}","{""itemA"":""choose what to do"",""itemB"":""become hungry"",""categoryA"":""cognitive"",""categoryB"":""physiological"",""attention_check"":false,""correct_response"":null}","{""itemA"":""reach for something"",""itemB"":""become hungry"",""categoryA"":""physical"",""categoryB"":""physiological"",""attention_check"":false,""correct_response"":null}","{""itemA"":""remember something"",""itemB"":""become hungry"",""categoryA"":""cognitive"",""categoryB"":""physiological"",""attention_check"":false,""correct_response"":null}","{""itemA"":""take a walk"",""itemB"":""become hungry"",""categoryA"":""physical"",""categoryB"":""physiological"",""attention_check"":false,""correct_response"":null}","{""itemA"":""think about something"",""itemB"":""become hungry"",""categoryA"":""cognitive"",""categoryB"":""physiological"",""attention_check"":false,""correct_response"":null}","{""itemA"":""get sick"",""itemB"":""become hungry"",""categoryA"":""physiological"",""categoryB"":""physiological"",""attention_check"":false,""correct_response"":null}","{""itemA"":""kick something"",""itemB"":""become hungry"",""categoryA"":""physical"",""categoryB"":""physiological"",""attention_check"":false,""correct_response"":null}","[0,1,2,3,4,5,6,7,8,9,10,11,12,13,14]","","","","","",""
"","","","","","survey-slider","18","null","1550347","8E5548975087426F87AB9CE79DC20E49","7923cc5b-9301-42f0-b40a-8aac5c9562bf","c9908d3c-c6c0-4ff0-8197-ad6b853728e6","","74685.40000000596","","{""Q0"":""100"",""Q1"":""100"",""Q2"":""100"",""Q3"":""24"",""Q4"":""100"",""Q5"":""75"",""Q6"":""100"",""Q7"":""100"",""Q8"":""100"",""Q9"":""100"",""Q10"":""100"",""Q11"":""76"",""Q12"":""100"",""Q13"":""100"",""Q14"":""24""}","","","","","{""itemA"":""feel scared"",""itemB"":""think about something"",""categoryA"":""physiological"",""categoryB"":""cognitive"",""attention_check"":false,""correct_response"":null}","{""itemA"":""see something"",""itemB"":""think about something"",""categoryA"":""cognitive"",""categoryB"":""cognitive"",""attention_check"":false,""correct_response"":null}","{""itemA"":""get sick"",""itemB"":""think about something"",""categoryA"":""physiological"",""categoryB"":""cognitive"",""attention_check"":false,""correct_response"":null}","{""itemA"":""jump up and down"",""itemB"":""think about something"",""categoryA"":""physical"",""categoryB"":""cognitive"",""attention_check"":false,""correct_response"":null}","{""itemA"":""become hungry"",""itemB"":""think about something"",""categoryA"":""physiological"",""categoryB"":""cognitive"",""attention_check"":false,""correct_response"":null}","{""itemA"":""get tired"",""itemB"":""think about something"",""categoryA"":""physiological"",""categoryB"":""cognitive"",""attention_check"":false,""correct_response"":null}","{""itemA"":""take a walk"",""itemB"":""think about something"",""categoryA"":""physical"",""categoryB"":""cognitive"",""attention_check"":false,""correct_response"":null}","{""itemA"":""hear something"",""itemB"":""think about something"",""categoryA"":""cognitive"",""categoryB"":""cognitive"",""attention_check"":false,""correct_response"":null}","{""itemA"":""experience pain"",""itemB"":""think about something"",""categoryA"":""physiological"",""categoryB"":""cognitive"",""attention_check"":false,""correct_response"":null}","{""itemA"":""kick something"",""itemB"":""think about something"",""categoryA"":""physical"",""categoryB"":""cognitive"",""attention_check"":false,""correct_response"":null}","{""itemA"":""think about something"",""itemB"":""think about something"",""categoryA"":""cognitive"",""categoryB"":""cognitive"",""attention_check"":false,""correct_response"":null}","{""itemA"":""sit down"",""itemB"":""think about something"",""categoryA"":""physical"",""categoryB"":""cognitive"",""attention_check"":false,""correct_response"":null}","{""itemA"":""choose what to do"",""itemB"":""think about something"",""categoryA"":""cognitive"",""categoryB"":""cognitive"",""attention_check"":false,""correct_response"":null}","{""itemA"":""remember something"",""itemB"":""think about something"",""categoryA"":""cognitive"",""categoryB"":""cognitive"",""attention_check"":false,""correct_response"":null}","{""itemA"":""reach for something"",""itemB"":""think about something"",""categoryA"":""physical"",""categoryB"":""cognitive"",""attention_check"":false,""correct_response"":null}","[0,1,2,3,4,5,6,7,8,9,10,11,12,13,14]","","","","","",""
"","","","","","survey-slider","19","null","1678211","8E5548975087426F87AB9CE79DC20E49","7923cc5b-9301-42f0-b40a-8aac5c9562bf","c9908d3c-c6c0-4ff0-8197-ad6b853728e6","","127859.90000000596","","{""Q0"":""24"",""Q1"":""0"",""Q2"":""74"",""Q3"":""0"",""Q4"":""0"",""Q5"":""0"",""Q6"":""23"",""Q7"":""0"",""Q8"":""0"",""Q9"":""0"",""Q10"":""0"",""Q11"":""74"",""Q12"":""74"",""Q13"":""75"",""Q14"":""75"",""Q15"":""100""}","","","","","{""itemA"":""remember something"",""itemB"":""see something"",""categoryA"":""cognitive"",""categoryB"":""cognitive"",""attention_check"":false,""correct_response"":null}","{""itemA"":""experience pain"",""itemB"":""see something"",""categoryA"":""physiological"",""categoryB"":""cognitive"",""attention_check"":false,""correct_response"":null}","{""itemA"":""get tired"",""itemB"":""see something"",""categoryA"":""physiological"",""categoryB"":""cognitive"",""attention_check"":false,""correct_response"":null}","{""itemA"":""sit down"",""itemB"":""see something"",""categoryA"":""physical"",""categoryB"":""cognitive"",""attention_check"":false,""correct_response"":null}","{""itemA"":""reach for something"",""itemB"":""see something"",""categoryA"":""physical"",""categoryB"":""cognitive"",""attention_check"":false,""correct_response"":null}","{""itemA"":""become hungry"",""itemB"":""see something"",""categoryA"":""physiological"",""categoryB"":""cognitive"",""attention_check"":false,""correct_response"":null}","{""itemA"":""kick something"",""itemB"":""see something"",""categoryA"":""physical"",""categoryB"":""cognitive"",""attention_check"":false,""correct_response"":null}","{""itemA"":""jump up and down"",""itemB"":""see something"",""categoryA"":""physical"",""categoryB"":""cognitive"",""attention_check"":false,""correct_response"":null}","{""itemA"":""hear something"",""itemB"":""see something"",""categoryA"":""cognitive"",""categoryB"":""cognitive"",""attention_check"":false,""correct_response"":null}","{""itemA"":""see something"",""itemB"":""see something"",""categoryA"":""cognitive"",""categoryB"":""cognitive"",""attention_check"":false,""correct_response"":null}","{""itemA"":""choose what to do"",""itemB"":""see something"",""categoryA"":""cognitive"",""categoryB"":""cognitive"",""attention_check"":false,""correct_response"":null}","{""itemA"":""feel scared"",""itemB"":""see something"",""categoryA"":""physiological"",""categoryB"":""cognitive"",""attention_check"":false,""correct_response"":null}","{""itemA"":""take a walk"",""itemB"":""see something"",""categoryA"":""physical"",""categoryB"":""cognitive"",""attention_check"":false,""correct_response"":null}","{""itemA"":""think about something"",""itemB"":""see something"",""categoryA"":""cognitive"",""categoryB"":""cognitive"",""attention_check"":false,""correct_response"":null}","{""itemA"":""get sick"",""itemB"":""see something"",""categoryA"":""physiological"",""categoryB"":""cognitive"",""attention_check"":false,""correct_response"":null}","[0,1,2,3,4,5,6,7,8,9,10,11,12,13,14,15]","{""itemA"":null,""itemB"":null,""categoryA"":null,""categoryB"":null,""attention_check"":true,""correct_response"":100}","","","","",""
"","","","","","survey-slider","20","null","1750779","8E5548975087426F87AB9CE79DC20E49","7923cc5b-9301-42f0-b40a-8aac5c9562bf","c9908d3c-c6c0-4ff0-8197-ad6b853728e6","","72564.09999999404","","{""Q0"":""100"",""Q1"":""74"",""Q2"":""0"",""Q3"":""74"",""Q4"":""100"",""Q5"":""100"",""Q6"":""0"",""Q7"":""0"",""Q8"":""0"",""Q9"":""0"",""Q10"":""72"",""Q11"":""100"",""Q12"":""100"",""Q13"":""100"",""Q14"":""100""}","","","","","{""itemA"":""take a walk"",""itemB"":""take a walk"",""categoryA"":""physical"",""categoryB"":""physical"",""attention_check"":false,""correct_response"":null}","{""itemA"":""experience pain"",""itemB"":""take a walk"",""categoryA"":""physiological"",""categoryB"":""physical"",""attention_check"":false,""correct_response"":null}","{""itemA"":""jump up and down"",""itemB"":""take a walk"",""categoryA"":""physical"",""categoryB"":""physical"",""attention_check"":false,""correct_response"":null}","{""itemA"":""kick something"",""itemB"":""take a walk"",""categoryA"":""physical"",""categoryB"":""physical"",""attention_check"":false,""correct_response"":null}","{""itemA"":""remember something"",""itemB"":""take a walk"",""categoryA"":""cognitive"",""categoryB"":""physical"",""attention_check"":false,""correct_response"":null}","{""itemA"":""choose what to do"",""itemB"":""take a walk"",""categoryA"":""cognitive"",""categoryB"":""physical"",""attention_check"":false,""correct_response"":null}","{""itemA"":""get sick"",""itemB"":""take a walk"",""categoryA"":""physiological"",""categoryB"":""physical"",""attention_check"":false,""correct_response"":null}","{""itemA"":""sit down"",""itemB"":""take a walk"",""categoryA"":""physical"",""categoryB"":""physical"",""attention_check"":false,""correct_response"":null}","{""itemA"":""get tired"",""itemB"":""take a walk"",""categoryA"":""physiological"",""categoryB"":""physical"",""attention_check"":false,""correct_response"":null}","{""itemA"":""reach for something"",""itemB"":""take a walk"",""categoryA"":""physical"",""categoryB"":""physical"",""attention_check"":false,""correct_response"":null}","{""itemA"":""become hungry"",""itemB"":""take a walk"",""categoryA"":""physiological"",""categoryB"":""physical"",""attention_check"":false,""correct_response"":null}","{""itemA"":""see something"",""itemB"":""take a walk"",""categoryA"":""cognitive"",""categoryB"":""physical"",""attention_check"":false,""correct_response"":null}","{""itemA"":""think about something"",""itemB"":""take a walk"",""categoryA"":""cognitive"",""categoryB"":""physical"",""attention_check"":false,""correct_response"":null}","{""itemA"":""feel scared"",""itemB"":""take a walk"",""categoryA"":""physiological"",""categoryB"":""physical"",""attention_check"":false,""correct_response"":null}","{""itemA"":""hear something"",""itemB"":""take a walk"",""categoryA"":""cognitive"",""categoryB"":""physical"",""attention_check"":false,""correct_response"":null}","[0,1,2,3,4,5,6,7,8,9,10,11,12,13,14]","","","","","",""
"","","","","","survey-slider","21","null","1800155","8E5548975087426F87AB9CE79DC20E49","7923cc5b-9301-42f0-b40a-8aac5c9562bf","c9908d3c-c6c0-4ff0-8197-ad6b853728e6","","49372.90000000596","","{""Q0"":""100"",""Q1"":""0"",""Q2"":""100"",""Q3"":""0"",""Q4"":""75"",""Q5"":""25"",""Q6"":""75"",""Q7"":""0"",""Q8"":""100"",""Q9"":""100"",""Q10"":""0"",""Q11"":""100"",""Q12"":""100"",""Q13"":""100"",""Q14"":""24""}","","","","","{""itemA"":""think about something"",""itemB"":""feel scared"",""categoryA"":""cognitive"",""categoryB"":""physiological"",""attention_check"":false,""correct_response"":null}","{""itemA"":""get tired"",""itemB"":""feel scared"",""categoryA"":""physiological"",""categoryB"":""physiological"",""attention_check"":false,""correct_response"":null}","{""itemA"":""hear something"",""itemB"":""feel scared"",""categoryA"":""cognitive"",""categoryB"":""physiological"",""attention_check"":false,""correct_response"":null}","{""itemA"":""jump up and down"",""itemB"":""feel scared"",""categoryA"":""physical"",""categoryB"":""physiological"",""attention_check"":false,""correct_response"":null}","{""itemA"":""reach for something"",""itemB"":""feel scared"",""categoryA"":""physical"",""categoryB"":""physiological"",""attention_check"":false,""correct_response"":null}","{""itemA"":""choose what to do"",""itemB"":""feel scared"",""categoryA"":""cognitive"",""categoryB"":""physiological"",""attention_check"":false,""correct_response"":null}","{""itemA"":""kick something"",""itemB"":""feel scared"",""categoryA"":""physical"",""categoryB"":""physiological"",""attention_check"":false,""correct_response"":null}","{""itemA"":""sit down"",""itemB"":""feel scared"",""categoryA"":""physical"",""categoryB"":""physiological"",""attention_check"":false,""correct_response"":null}","{""itemA"":""remember something"",""itemB"":""feel scared"",""categoryA"":""cognitive"",""categoryB"":""physiological"",""attention_check"":false,""correct_response"":null}","{""itemA"":""get sick"",""itemB"":""feel scared"",""categoryA"":""physiological"",""categoryB"":""physiological"",""attention_check"":false,""correct_response"":null}","{""itemA"":""become hungry"",""itemB"":""feel scared"",""categoryA"":""physiological"",""categoryB"":""physiological"",""attention_check"":false,""correct_response"":null}","{""itemA"":""see something"",""itemB"":""feel scared"",""categoryA"":""cognitive"",""categoryB"":""physiological"",""attention_check"":false,""correct_response"":null}","{""itemA"":""experience pain"",""itemB"":""feel scared"",""categoryA"":""physiological"",""categoryB"":""physiological"",""attention_check"":false,""correct_response"":null}","{""itemA"":""feel scared"",""itemB"":""feel scared"",""categoryA"":""physiological"",""categoryB"":""physiological"",""attention_check"":false,""correct_response"":null}","{""itemA"":""take a walk"",""itemB"":""feel scared"",""categoryA"":""physical"",""categoryB"":""physiological"",""attention_check"":false,""correct_response"":null}","[0,1,2,3,4,5,6,7,8,9,10,11,12,13,14]","","","","","",""
"","","","","","instructions","22","2.0.0","1817083","8E5548975087426F87AB9CE79DC20E49","7923cc5b-9301-42f0-b40a-8aac5c9562bf","c9908d3c-c6c0-4ff0-8197-ad6b853728e6","","16927","","","[{""page_index"":0,""viewing_time"":16927}]","","","","","","","","","","","","","","","","","","","","","","","","",""
"","","","","","survey-html-form","23","2.0.0","2154068","8E5548975087426F87AB9CE79DC20E49","7923cc5b-9301-42f0-b40a-8aac5c9562bf","c9908d3c-c6c0-4ff0-8197-ad6b853728e6","demographics_survey","336984","","{""feedback"":""I mostly imagined myself or another doing something or experiencing something and tried to think of various scenarios where that action or experience was related to or could be the result of another action or experience.  As for the experiment, it went well, I had no issues or technical problems.  "",""age"":""39"",""gender"":""Male"",""other_gender"":"""",""race"":""White"",""other_race"":"""",""ethnicity"":""Non-Hispanic""}","","","","","","","","","","","","","","","","","","","","","","I mostly imagined myself or another doing something or experiencing something and tried to think of various scenarios where that action or experience was related to or could be the result of another action or experience.  As for the experiment, it went well, I had no issues or technical problems.  ","39","Non-Hispanic","Male","White"
