"success","timeout","failed_images","failed_audio","failed_video","trial_type","trial_index","plugin_version","time_elapsed","mturk_participant_id","mturk_assignment_id","mturk_project_id","trial_id","rt","stimulus","response","view_history","0","1","2","3","4","5","6","7","8","9","10","11","12","13","14","question_order","15","init_locations","moves","final_locations","feedback","age","ethnicity","gender","race"
"true","false","[]","[]","[]","preload","0","2.0.0","1354","C359722303E74636896615B081B895ED","6eaccfd0-ba8d-4dae-bb40-d82acd8504fa","8ae46f88-4456-4f39-84be-0d71ee8809ab","","","","","","","","","","","","","","","","","","","","","","","","","","","","","",""
"","","","","","html-button-response","1","2.0.0","2427125","C359722303E74636896615B081B895ED","6eaccfd0-ba8d-4dae-bb40-d82acd8504fa","8ae46f88-4456-4f39-84be-0d71ee8809ab","consent","2425768","<p><b>Consent Form</b></p> <div style=""text-align:left;background-color:lightblue; padding:2vw; max-width:80vw;""><p><b>Purpose:</b> The purpose of this study is to understand how people think about the physical and social world.</p><p><b>Procedures:</b> In this study, you will watch videos, read sentences, or see pictures, and answer simple questions about them. This study should take approximately 30 minutes</p><p><b>Participation:</b> Participation in this study is voluntary. If you decide to join now, you can change your mind later. </p><p><b>Payment:</b> You will be paid $15.00/hour for participating in this study. Given the estimated duration of 30 minutes, your payment will amount to $7.50.</p><p><b>Risks and benefits:</b> There are no risks associated with participating in this study. There are no direct benefits associated with participating in this study. </p><p><b>Use of data by study researchers:</b> The research team led by Shari Liu at JHU will have access to your answers. </p><p><b>Publication of results:</b> The results of the research may be presented at scientific meetings or published in scientific journals. Your individual responses may be published. We will never publish your name, the date that you participated, and any other information that could be used to identify you. </p><p><b>Researcher contact information:</b> This study is run by Dr. Shari Liu at JHU. If you have any questions or concerns about this study, or in the very unlikely event of a research-related injury, please contact sliu199@jhu.edu. </p><p><b>Research rights information:</b> If you have questions about your rights as a research participant or feel that you have not been treated fairly, please call the Homewood Institutional Review Board at Johns Hopkins University at (410) 516-6580. If you have any questions or issues completing the survey, please email Shari Liu at sliu199@jhu.edu. </p> </div><p> Do you consent to participate? </p>","0","","","","","","","","","","","","","","","","","","","","","","","","","",""
"","","","","","instructions","2","2.0.0","2436700","C359722303E74636896615B081B895ED","6eaccfd0-ba8d-4dae-bb40-d82acd8504fa","8ae46f88-4456-4f39-84be-0d71ee8809ab","","9573","","","[{""page_index"":0,""viewing_time"":9573}]","","","","","","","","","","","","","","","","","","","","","","","","",""
"","","","","","instructions","3","2.0.0","2474369","C359722303E74636896615B081B895ED","6eaccfd0-ba8d-4dae-bb40-d82acd8504fa","8ae46f88-4456-4f39-84be-0d71ee8809ab","","37668","","","[{""page_index"":0,""viewing_time"":37668}]","","","","","","","","","","","","","","","","","","","","","","","","",""
"","","","","","survey-slider","4","null","2564490","C359722303E74636896615B081B895ED","6eaccfd0-ba8d-4dae-bb40-d82acd8504fa","8ae46f88-4456-4f39-84be-0d71ee8809ab","","90117","","{""Q0"":""76"",""Q1"":""75"",""Q2"":""75"",""Q3"":""27"",""Q4"":""74"",""Q5"":""73"",""Q6"":""25"",""Q7"":""74"",""Q8"":""100"",""Q9"":""75"",""Q10"":""26"",""Q11"":""25"",""Q12"":""24"",""Q13"":""73"",""Q14"":""73""}","","{""itemA"":""choose what to do"",""itemB"":""kick something"",""categoryA"":""cognitive"",""categoryB"":""physical"",""attention_check"":false,""correct_response"":null}","{""itemA"":""remember something"",""itemB"":""kick something"",""categoryA"":""cognitive"",""categoryB"":""physical"",""attention_check"":false,""correct_response"":null}","{""itemA"":""think about something"",""itemB"":""kick something"",""categoryA"":""cognitive"",""categoryB"":""physical"",""attention_check"":false,""correct_response"":null}","{""itemA"":""jump up and down"",""itemB"":""kick something"",""categoryA"":""physical"",""categoryB"":""physical"",""attention_check"":false,""correct_response"":null}","{""itemA"":""see something"",""itemB"":""kick something"",""categoryA"":""cognitive"",""categoryB"":""physical"",""attention_check"":false,""correct_response"":null}","{""itemA"":""take a walk"",""itemB"":""kick something"",""categoryA"":""physical"",""categoryB"":""physical"",""attention_check"":false,""correct_response"":null}","{""itemA"":""get sick"",""itemB"":""kick something"",""categoryA"":""physiological"",""categoryB"":""physical"",""attention_check"":false,""correct_response"":null}","{""itemA"":""feel scared"",""itemB"":""kick something"",""categoryA"":""physiological"",""categoryB"":""physical"",""attention_check"":false,""correct_response"":null}","{""itemA"":""kick something"",""itemB"":""kick something"",""categoryA"":""physical"",""categoryB"":""physical"",""attention_check"":false,""correct_response"":null}","{""itemA"":""experience pain"",""itemB"":""kick something"",""categoryA"":""physiological"",""categoryB"":""physical"",""attention_check"":false,""correct_response"":null}","{""itemA"":""become hungry"",""itemB"":""kick something"",""categoryA"":""physiological"",""categoryB"":""physical"",""attention_check"":false,""correct_response"":null}","{""itemA"":""sit down"",""itemB"":""kick something"",""categoryA"":""physical"",""categoryB"":""physical"",""attention_check"":false,""correct_response"":null}","{""itemA"":""get tired"",""itemB"":""kick something"",""categoryA"":""physiological"",""categoryB"":""physical"",""attention_check"":false,""correct_response"":null}","{""itemA"":""hear something"",""itemB"":""kick something"",""categoryA"":""cognitive"",""categoryB"":""physical"",""attention_check"":false,""correct_response"":null}","{""itemA"":""reach for something"",""itemB"":""kick something"",""categoryA"":""physical"",""categoryB"":""physical"",""attention_check"":false,""correct_response"":null}","[0,1,2,3,4,5,6,7,8,9,10,11,12,13,14]","","","","","","","","",""
"","","","","","survey-slider","5","null","2617947","C359722303E74636896615B081B895ED","6eaccfd0-ba8d-4dae-bb40-d82acd8504fa","8ae46f88-4456-4f39-84be-0d71ee8809ab","","53453.40000000596","","{""Q0"":""74"",""Q1"":""75"",""Q2"":""98"",""Q3"":""99"",""Q4"":""24"",""Q5"":""97"",""Q6"":""95"",""Q7"":""77"",""Q8"":""75"",""Q9"":""99"",""Q10"":""77"",""Q11"":""100"",""Q12"":""100"",""Q13"":""100"",""Q14"":""88""}","","{""itemA"":""experience pain"",""itemB"":""choose what to do"",""categoryA"":""physiological"",""categoryB"":""cognitive"",""attention_check"":false,""correct_response"":null}","{""itemA"":""kick something"",""itemB"":""choose what to do"",""categoryA"":""physical"",""categoryB"":""cognitive"",""attention_check"":false,""correct_response"":null}","{""itemA"":""become hungry"",""itemB"":""choose what to do"",""categoryA"":""physiological"",""categoryB"":""cognitive"",""attention_check"":false,""correct_response"":null}","{""itemA"":""remember something"",""itemB"":""choose what to do"",""categoryA"":""cognitive"",""categoryB"":""cognitive"",""attention_check"":false,""correct_response"":null}","{""itemA"":""jump up and down"",""itemB"":""choose what to do"",""categoryA"":""physical"",""categoryB"":""cognitive"",""attention_check"":false,""correct_response"":null}","{""itemA"":""get tired"",""itemB"":""choose what to do"",""categoryA"":""physiological"",""categoryB"":""cognitive"",""attention_check"":false,""correct_response"":null}","{""itemA"":""feel scared"",""itemB"":""choose what to do"",""categoryA"":""physiological"",""categoryB"":""cognitive"",""attention_check"":false,""correct_response"":null}","{""itemA"":""take a walk"",""itemB"":""choose what to do"",""categoryA"":""physical"",""categoryB"":""cognitive"",""attention_check"":false,""correct_response"":null}","{""itemA"":""sit down"",""itemB"":""choose what to do"",""categoryA"":""physical"",""categoryB"":""cognitive"",""attention_check"":false,""correct_response"":null}","{""itemA"":""think about something"",""itemB"":""choose what to do"",""categoryA"":""cognitive"",""categoryB"":""cognitive"",""attention_check"":false,""correct_response"":null}","{""itemA"":""reach for something"",""itemB"":""choose what to do"",""categoryA"":""physical"",""categoryB"":""cognitive"",""attention_check"":false,""correct_response"":null}","{""itemA"":""choose what to do"",""itemB"":""choose what to do"",""categoryA"":""cognitive"",""categoryB"":""cognitive"",""attention_check"":false,""correct_response"":null}","{""itemA"":""hear something"",""itemB"":""choose what to do"",""categoryA"":""cognitive"",""categoryB"":""cognitive"",""attention_check"":false,""correct_response"":null}","{""itemA"":""see something"",""itemB"":""choose what to do"",""categoryA"":""cognitive"",""categoryB"":""cognitive"",""attention_check"":false,""correct_response"":null}","{""itemA"":""get sick"",""itemB"":""choose what to do"",""categoryA"":""physiological"",""categoryB"":""cognitive"",""attention_check"":false,""correct_response"":null}","[0,1,2,3,4,5,6,7,8,9,10,11,12,13,14]","","","","","","","","",""
"","","","","","survey-slider","6","null","2733217","C359722303E74636896615B081B895ED","6eaccfd0-ba8d-4dae-bb40-d82acd8504fa","8ae46f88-4456-4f39-84be-0d71ee8809ab","","115267.19999998808","","{""Q0"":""25"",""Q1"":""76"",""Q2"":""75"",""Q3"":""75"",""Q4"":""24"",""Q5"":""27"",""Q6"":""100"",""Q7"":""78"",""Q8"":""24"",""Q9"":""24"",""Q10"":""25"",""Q11"":""87"",""Q12"":""80"",""Q13"":""22"",""Q14"":""76""}","","{""itemA"":""sit down"",""itemB"":""take a walk"",""categoryA"":""physical"",""categoryB"":""physical"",""attention_check"":false,""correct_response"":null}","{""itemA"":""feel scared"",""itemB"":""take a walk"",""categoryA"":""physiological"",""categoryB"":""physical"",""attention_check"":false,""correct_response"":null}","{""itemA"":""see something"",""itemB"":""take a walk"",""categoryA"":""cognitive"",""categoryB"":""physical"",""attention_check"":false,""correct_response"":null}","{""itemA"":""kick something"",""itemB"":""take a walk"",""categoryA"":""physical"",""categoryB"":""physical"",""attention_check"":false,""correct_response"":null}","{""itemA"":""jump up and down"",""itemB"":""take a walk"",""categoryA"":""physical"",""categoryB"":""physical"",""attention_check"":false,""correct_response"":null}","{""itemA"":""get sick"",""itemB"":""take a walk"",""categoryA"":""physiological"",""categoryB"":""physical"",""attention_check"":false,""correct_response"":null}","{""itemA"":""take a walk"",""itemB"":""take a walk"",""categoryA"":""physical"",""categoryB"":""physical"",""attention_check"":false,""correct_response"":null}","{""itemA"":""remember something"",""itemB"":""take a walk"",""categoryA"":""cognitive"",""categoryB"":""physical"",""attention_check"":false,""correct_response"":null}","{""itemA"":""get tired"",""itemB"":""take a walk"",""categoryA"":""physiological"",""categoryB"":""physical"",""attention_check"":false,""correct_response"":null}","{""itemA"":""become hungry"",""itemB"":""take a walk"",""categoryA"":""physiological"",""categoryB"":""physical"",""attention_check"":false,""correct_response"":null}","{""itemA"":""experience pain"",""itemB"":""take a walk"",""categoryA"":""physiological"",""categoryB"":""physical"",""attention_check"":false,""correct_response"":null}","{""itemA"":""choose what to do"",""itemB"":""take a walk"",""categoryA"":""cognitive"",""categoryB"":""physical"",""attention_check"":false,""correct_response"":null}","{""itemA"":""hear something"",""itemB"":""take a walk"",""categoryA"":""cognitive"",""categoryB"":""physical"",""attention_check"":false,""correct_response"":null}","{""itemA"":""reach for something"",""itemB"":""take a walk"",""categoryA"":""physical"",""categoryB"":""physical"",""attention_check"":false,""correct_response"":null}","{""itemA"":""think about something"",""itemB"":""take a walk"",""categoryA"":""cognitive"",""categoryB"":""physical"",""attention_check"":false,""correct_response"":null}","[0,1,2,3,4,5,6,7,8,9,10,11,12,13,14]","","","","","","","","",""
"","","","","","survey-slider","7","null","2845096","C359722303E74636896615B081B895ED","6eaccfd0-ba8d-4dae-bb40-d82acd8504fa","8ae46f88-4456-4f39-84be-0d71ee8809ab","","111874.59999999404","","{""Q0"":""88"",""Q1"":""77"",""Q2"":""75"",""Q3"":""25"",""Q4"":""74"",""Q5"":""25"",""Q6"":""22"",""Q7"":""84"",""Q8"":""71"",""Q9"":""94"",""Q10"":""73"",""Q11"":""95"",""Q12"":""93"",""Q13"":""22"",""Q14"":""0"",""Q15"":""100""}","","{""itemA"":""feel scared"",""itemB"":""remember something"",""categoryA"":""physiological"",""categoryB"":""cognitive"",""attention_check"":false,""correct_response"":null}","{""itemA"":""get sick"",""itemB"":""remember something"",""categoryA"":""physiological"",""categoryB"":""cognitive"",""attention_check"":false,""correct_response"":null}","{""itemA"":""choose what to do"",""itemB"":""remember something"",""categoryA"":""cognitive"",""categoryB"":""cognitive"",""attention_check"":false,""correct_response"":null}","{""itemA"":""get tired"",""itemB"":""remember something"",""categoryA"":""physiological"",""categoryB"":""cognitive"",""attention_check"":false,""correct_response"":null}","{""itemA"":""reach for something"",""itemB"":""remember something"",""categoryA"":""physical"",""categoryB"":""cognitive"",""attention_check"":false,""correct_response"":null}","{""itemA"":""kick something"",""itemB"":""remember something"",""categoryA"":""physical"",""categoryB"":""cognitive"",""attention_check"":false,""correct_response"":null}","{""itemA"":""sit down"",""itemB"":""remember something"",""categoryA"":""physical"",""categoryB"":""cognitive"",""attention_check"":false,""correct_response"":null}","{""itemA"":""experience pain"",""itemB"":""remember something"",""categoryA"":""physiological"",""categoryB"":""cognitive"",""attention_check"":false,""correct_response"":null}","{""itemA"":""become hungry"",""itemB"":""remember something"",""categoryA"":""physiological"",""categoryB"":""cognitive"",""attention_check"":false,""correct_response"":null}","{""itemA"":""see something"",""itemB"":""remember something"",""categoryA"":""cognitive"",""categoryB"":""cognitive"",""attention_check"":false,""correct_response"":null}","{""itemA"":""take a walk"",""itemB"":""remember something"",""categoryA"":""physical"",""categoryB"":""cognitive"",""attention_check"":false,""correct_response"":null}","{""itemA"":""hear something"",""itemB"":""remember something"",""categoryA"":""cognitive"",""categoryB"":""cognitive"",""attention_check"":false,""correct_response"":null}","{""itemA"":""remember something"",""itemB"":""remember something"",""categoryA"":""cognitive"",""categoryB"":""cognitive"",""attention_check"":false,""correct_response"":null}","{""itemA"":""jump up and down"",""itemB"":""remember something"",""categoryA"":""physical"",""categoryB"":""cognitive"",""attention_check"":false,""correct_response"":null}","{""itemA"":null,""itemB"":null,""categoryA"":null,""categoryB"":null,""attention_check"":true,""correct_response"":null}","[0,1,2,3,4,5,6,7,8,9,10,11,12,13,14,15]","{""itemA"":""think about something"",""itemB"":""remember something"",""categoryA"":""cognitive"",""categoryB"":""cognitive"",""attention_check"":false,""correct_response"":null}","","","","","","","",""
"","","","","","survey-slider","8","null","2887169","C359722303E74636896615B081B895ED","6eaccfd0-ba8d-4dae-bb40-d82acd8504fa","8ae46f88-4456-4f39-84be-0d71ee8809ab","","42069.40000000596","","{""Q0"":""82"",""Q1"":""74"",""Q2"":""79"",""Q3"":""83"",""Q4"":""100"",""Q5"":""25"",""Q6"":""76"",""Q7"":""77"",""Q8"":""87"",""Q9"":""98"",""Q10"":""66"",""Q11"":""26"",""Q12"":""24"",""Q13"":""24"",""Q14"":""30""}","","{""itemA"":""take a walk"",""itemB"":""become hungry"",""categoryA"":""physical"",""categoryB"":""physiological"",""attention_check"":false,""correct_response"":null}","{""itemA"":""choose what to do"",""itemB"":""become hungry"",""categoryA"":""cognitive"",""categoryB"":""physiological"",""attention_check"":false,""correct_response"":null}","{""itemA"":""hear something"",""itemB"":""become hungry"",""categoryA"":""cognitive"",""categoryB"":""physiological"",""attention_check"":false,""correct_response"":null}","{""itemA"":""remember something"",""itemB"":""become hungry"",""categoryA"":""cognitive"",""categoryB"":""physiological"",""attention_check"":false,""correct_response"":null}","{""itemA"":""become hungry"",""itemB"":""become hungry"",""categoryA"":""physiological"",""categoryB"":""physiological"",""attention_check"":false,""correct_response"":null}","{""itemA"":""feel scared"",""itemB"":""become hungry"",""categoryA"":""physiological"",""categoryB"":""physiological"",""attention_check"":false,""correct_response"":null}","{""itemA"":""get tired"",""itemB"":""become hungry"",""categoryA"":""physiological"",""categoryB"":""physiological"",""attention_check"":false,""correct_response"":null}","{""itemA"":""get sick"",""itemB"":""become hungry"",""categoryA"":""physiological"",""categoryB"":""physiological"",""attention_check"":false,""correct_response"":null}","{""itemA"":""think about something"",""itemB"":""become hungry"",""categoryA"":""cognitive"",""categoryB"":""physiological"",""attention_check"":false,""correct_response"":null}","{""itemA"":""see something"",""itemB"":""become hungry"",""categoryA"":""cognitive"",""categoryB"":""physiological"",""attention_check"":false,""correct_response"":null}","{""itemA"":""reach for something"",""itemB"":""become hungry"",""categoryA"":""physical"",""categoryB"":""physiological"",""attention_check"":false,""correct_response"":null}","{""itemA"":""experience pain"",""itemB"":""become hungry"",""categoryA"":""physiological"",""categoryB"":""physiological"",""attention_check"":false,""correct_response"":null}","{""itemA"":""jump up and down"",""itemB"":""become hungry"",""categoryA"":""physical"",""categoryB"":""physiological"",""attention_check"":false,""correct_response"":null}","{""itemA"":""kick something"",""itemB"":""become hungry"",""categoryA"":""physical"",""categoryB"":""physiological"",""attention_check"":false,""correct_response"":null}","{""itemA"":""sit down"",""itemB"":""become hungry"",""categoryA"":""physical"",""categoryB"":""physiological"",""attention_check"":false,""correct_response"":null}","[0,1,2,3,4,5,6,7,8,9,10,11,12,13,14]","","","","","","","","",""
"","","","","","survey-slider","9","null","3260995","C359722303E74636896615B081B895ED","6eaccfd0-ba8d-4dae-bb40-d82acd8504fa","8ae46f88-4456-4f39-84be-0d71ee8809ab","","373821.40000000596","","{""Q0"":""80"",""Q1"":""76"",""Q2"":""100"",""Q3"":""87"",""Q4"":""72"",""Q5"":""26"",""Q6"":""0"",""Q7"":""82"",""Q8"":""81"",""Q9"":""10"",""Q10"":""19"",""Q11"":""14"",""Q12"":""76"",""Q13"":""81"",""Q14"":""22""}","","{""itemA"":""think about something"",""itemB"":""jump up and down"",""categoryA"":""cognitive"",""categoryB"":""physical"",""attention_check"":false,""correct_response"":null}","{""itemA"":""kick something"",""itemB"":""jump up and down"",""categoryA"":""physical"",""categoryB"":""physical"",""attention_check"":false,""correct_response"":null}","{""itemA"":""jump up and down"",""itemB"":""jump up and down"",""categoryA"":""physical"",""categoryB"":""physical"",""attention_check"":false,""correct_response"":null}","{""itemA"":""experience pain"",""itemB"":""jump up and down"",""categoryA"":""physiological"",""categoryB"":""physical"",""attention_check"":false,""correct_response"":null}","{""itemA"":""choose what to do"",""itemB"":""jump up and down"",""categoryA"":""cognitive"",""categoryB"":""physical"",""attention_check"":false,""correct_response"":null}","{""itemA"":""become hungry"",""itemB"":""jump up and down"",""categoryA"":""physiological"",""categoryB"":""physical"",""attention_check"":false,""correct_response"":null}","{""itemA"":""sit down"",""itemB"":""jump up and down"",""categoryA"":""physical"",""categoryB"":""physical"",""attention_check"":false,""correct_response"":null}","{""itemA"":""see something"",""itemB"":""jump up and down"",""categoryA"":""cognitive"",""categoryB"":""physical"",""attention_check"":false,""correct_response"":null}","{""itemA"":""feel scared"",""itemB"":""jump up and down"",""categoryA"":""physiological"",""categoryB"":""physical"",""attention_check"":false,""correct_response"":null}","{""itemA"":""get tired"",""itemB"":""jump up and down"",""categoryA"":""physiological"",""categoryB"":""physical"",""attention_check"":false,""correct_response"":null}","{""itemA"":""reach for something"",""itemB"":""jump up and down"",""categoryA"":""physical"",""categoryB"":""physical"",""attention_check"":false,""correct_response"":null}","{""itemA"":""take a walk"",""itemB"":""jump up and down"",""categoryA"":""physical"",""categoryB"":""physical"",""attention_check"":false,""correct_response"":null}","{""itemA"":""remember something"",""itemB"":""jump up and down"",""categoryA"":""cognitive"",""categoryB"":""physical"",""attention_check"":false,""correct_response"":null}","{""itemA"":""hear something"",""itemB"":""jump up and down"",""categoryA"":""cognitive"",""categoryB"":""physical"",""attention_check"":false,""correct_response"":null}","{""itemA"":""get sick"",""itemB"":""jump up and down"",""categoryA"":""physiological"",""categoryB"":""physical"",""attention_check"":false,""correct_response"":null}","[0,1,2,3,4,5,6,7,8,9,10,11,12,13,14]","","","","","","","","",""
"","","","","","survey-slider","10","null","3308605","C359722303E74636896615B081B895ED","6eaccfd0-ba8d-4dae-bb40-d82acd8504fa","8ae46f88-4456-4f39-84be-0d71ee8809ab","","47606.20000001788","","{""Q0"":""93"",""Q1"":""19"",""Q2"":""77"",""Q3"":""84"",""Q4"":""100"",""Q5"":""12"",""Q6"":""82"",""Q7"":""88"",""Q8"":""76"",""Q9"":""26"",""Q10"":""75"",""Q11"":""76"",""Q12"":""0"",""Q13"":""76"",""Q14"":""75""}","","{""itemA"":""get tired"",""itemB"":""sit down"",""categoryA"":""physiological"",""categoryB"":""physical"",""attention_check"":false,""correct_response"":null}","{""itemA"":""kick something"",""itemB"":""sit down"",""categoryA"":""physical"",""categoryB"":""physical"",""attention_check"":false,""correct_response"":null}","{""itemA"":""think about something"",""itemB"":""sit down"",""categoryA"":""cognitive"",""categoryB"":""physical"",""attention_check"":false,""correct_response"":null}","{""itemA"":""choose what to do"",""itemB"":""sit down"",""categoryA"":""cognitive"",""categoryB"":""physical"",""attention_check"":false,""correct_response"":null}","{""itemA"":""sit down"",""itemB"":""sit down"",""categoryA"":""physical"",""categoryB"":""physical"",""attention_check"":false,""correct_response"":null}","{""itemA"":""take a walk"",""itemB"":""sit down"",""categoryA"":""physical"",""categoryB"":""physical"",""attention_check"":false,""correct_response"":null}","{""itemA"":""experience pain"",""itemB"":""sit down"",""categoryA"":""physiological"",""categoryB"":""physical"",""attention_check"":false,""correct_response"":null}","{""itemA"":""hear something"",""itemB"":""sit down"",""categoryA"":""cognitive"",""categoryB"":""physical"",""attention_check"":false,""correct_response"":null}","{""itemA"":""become hungry"",""itemB"":""sit down"",""categoryA"":""physiological"",""categoryB"":""physical"",""attention_check"":false,""correct_response"":null}","{""itemA"":""reach for something"",""itemB"":""sit down"",""categoryA"":""physical"",""categoryB"":""physical"",""attention_check"":false,""correct_response"":null}","{""itemA"":""get sick"",""itemB"":""sit down"",""categoryA"":""physiological"",""categoryB"":""physical"",""attention_check"":false,""correct_response"":null}","{""itemA"":""see something"",""itemB"":""sit down"",""categoryA"":""cognitive"",""categoryB"":""physical"",""attention_check"":false,""correct_response"":null}","{""itemA"":""jump up and down"",""itemB"":""sit down"",""categoryA"":""physical"",""categoryB"":""physical"",""attention_check"":false,""correct_response"":null}","{""itemA"":""remember something"",""itemB"":""sit down"",""categoryA"":""cognitive"",""categoryB"":""physical"",""attention_check"":false,""correct_response"":null}","{""itemA"":""feel scared"",""itemB"":""sit down"",""categoryA"":""physiological"",""categoryB"":""physical"",""attention_check"":false,""correct_response"":null}","[0,1,2,3,4,5,6,7,8,9,10,11,12,13,14]","","","","","","","","",""
"","","","","","survey-slider","11","null","3377042","C359722303E74636896615B081B895ED","6eaccfd0-ba8d-4dae-bb40-d82acd8504fa","8ae46f88-4456-4f39-84be-0d71ee8809ab","","68433.09999999404","","{""Q0"":""100"",""Q1"":""26"",""Q2"":""74"",""Q3"":""84"",""Q4"":""87"",""Q5"":""86"",""Q6"":""71"",""Q7"":""84"",""Q8"":""28"",""Q9"":""23"",""Q10"":""88"",""Q11"":""25"",""Q12"":""71"",""Q13"":""51"",""Q14"":""91"",""Q15"":""86""}","","{""itemA"":""feel scared"",""itemB"":""feel scared"",""categoryA"":""physiological"",""categoryB"":""physiological"",""attention_check"":false,""correct_response"":null}","{""itemA"":""get tired"",""itemB"":""feel scared"",""categoryA"":""physiological"",""categoryB"":""physiological"",""attention_check"":false,""correct_response"":null}","{""itemA"":null,""itemB"":null,""categoryA"":null,""categoryB"":null,""attention_check"":true,""correct_response"":75}","{""itemA"":""get sick"",""itemB"":""feel scared"",""categoryA"":""physiological"",""categoryB"":""physiological"",""attention_check"":false,""correct_response"":null}","{""itemA"":""think about something"",""itemB"":""feel scared"",""categoryA"":""cognitive"",""categoryB"":""physiological"",""attention_check"":false,""correct_response"":null}","{""itemA"":""remember something"",""itemB"":""feel scared"",""categoryA"":""cognitive"",""categoryB"":""physiological"",""attention_check"":false,""correct_response"":null}","{""itemA"":""take a walk"",""itemB"":""feel scared"",""categoryA"":""physical"",""categoryB"":""physiological"",""attention_check"":false,""correct_response"":null}","{""itemA"":""hear something"",""itemB"":""feel scared"",""categoryA"":""cognitive"",""categoryB"":""physiological"",""attention_check"":false,""correct_response"":null}","{""itemA"":""reach for something"",""itemB"":""feel scared"",""categoryA"":""physical"",""categoryB"":""physiological"",""attention_check"":false,""correct_response"":null}","{""itemA"":""jump up and down"",""itemB"":""feel scared"",""categoryA"":""physical"",""categoryB"":""physiological"",""attention_check"":false,""correct_response"":null}","{""itemA"":""experience pain"",""itemB"":""feel scared"",""categoryA"":""physiological"",""categoryB"":""physiological"",""attention_check"":false,""correct_response"":null}","{""itemA"":""sit down"",""itemB"":""feel scared"",""categoryA"":""physical"",""categoryB"":""physiological"",""attention_check"":false,""correct_response"":null}","{""itemA"":""kick something"",""itemB"":""feel scared"",""categoryA"":""physical"",""categoryB"":""physiological"",""attention_check"":false,""correct_response"":null}","{""itemA"":""become hungry"",""itemB"":""feel scared"",""categoryA"":""physiological"",""categoryB"":""physiological"",""attention_check"":false,""correct_response"":null}","{""itemA"":""see something"",""itemB"":""feel scared"",""categoryA"":""cognitive"",""categoryB"":""physiological"",""attention_check"":false,""correct_response"":null}","[0,1,2,3,4,5,6,7,8,9,10,11,12,13,14,15]","{""itemA"":""choose what to do"",""itemB"":""feel scared"",""categoryA"":""cognitive"",""categoryB"":""physiological"",""attention_check"":false,""correct_response"":null}","","","","","","","",""
"","","","","","survey-slider","12","null","3607168","C359722303E74636896615B081B895ED","6eaccfd0-ba8d-4dae-bb40-d82acd8504fa","8ae46f88-4456-4f39-84be-0d71ee8809ab","","230122.40000000596","","{""Q0"":""76"",""Q1"":""87"",""Q2"":""89"",""Q3"":""87"",""Q4"":""26"",""Q5"":""100"",""Q6"":""28"",""Q7"":""74"",""Q8"":""90"",""Q9"":""74"",""Q10"":""78"",""Q11"":""92"",""Q12"":""76"",""Q13"":""86"",""Q14"":""88""}","","{""itemA"":""think about something"",""itemB"":""get tired"",""categoryA"":""cognitive"",""categoryB"":""physiological"",""attention_check"":false,""correct_response"":null}","{""itemA"":""kick something"",""itemB"":""get tired"",""categoryA"":""physical"",""categoryB"":""physiological"",""attention_check"":false,""correct_response"":null}","{""itemA"":""experience pain"",""itemB"":""get tired"",""categoryA"":""physiological"",""categoryB"":""physiological"",""attention_check"":false,""correct_response"":null}","{""itemA"":""choose what to do"",""itemB"":""get tired"",""categoryA"":""cognitive"",""categoryB"":""physiological"",""attention_check"":false,""correct_response"":null}","{""itemA"":""reach for something"",""itemB"":""get tired"",""categoryA"":""physical"",""categoryB"":""physiological"",""attention_check"":false,""correct_response"":null}","{""itemA"":""get tired"",""itemB"":""get tired"",""categoryA"":""physiological"",""categoryB"":""physiological"",""attention_check"":false,""correct_response"":null}","{""itemA"":""sit down"",""itemB"":""get tired"",""categoryA"":""physical"",""categoryB"":""physiological"",""attention_check"":false,""correct_response"":null}","{""itemA"":""see something"",""itemB"":""get tired"",""categoryA"":""cognitive"",""categoryB"":""physiological"",""attention_check"":false,""correct_response"":null}","{""itemA"":""take a walk"",""itemB"":""get tired"",""categoryA"":""physical"",""categoryB"":""physiological"",""attention_check"":false,""correct_response"":null}","{""itemA"":""feel scared"",""itemB"":""get tired"",""categoryA"":""physiological"",""categoryB"":""physiological"",""attention_check"":false,""correct_response"":null}","{""itemA"":""become hungry"",""itemB"":""get tired"",""categoryA"":""physiological"",""categoryB"":""physiological"",""attention_check"":false,""correct_response"":null}","{""itemA"":""jump up and down"",""itemB"":""get tired"",""categoryA"":""physical"",""categoryB"":""physiological"",""attention_check"":false,""correct_response"":null}","{""itemA"":""remember something"",""itemB"":""get tired"",""categoryA"":""cognitive"",""categoryB"":""physiological"",""attention_check"":false,""correct_response"":null}","{""itemA"":""hear something"",""itemB"":""get tired"",""categoryA"":""cognitive"",""categoryB"":""physiological"",""attention_check"":false,""correct_response"":null}","{""itemA"":""get sick"",""itemB"":""get tired"",""categoryA"":""physiological"",""categoryB"":""physiological"",""attention_check"":false,""correct_response"":null}","[0,1,2,3,4,5,6,7,8,9,10,11,12,13,14]","","","","","","","","",""
"","","","","","survey-slider","13","null","3662931","C359722303E74636896615B081B895ED","6eaccfd0-ba8d-4dae-bb40-d82acd8504fa","8ae46f88-4456-4f39-84be-0d71ee8809ab","","55758.19999998808","","{""Q0"":""80"",""Q1"":""88"",""Q2"":""90"",""Q3"":""94"",""Q4"":""92"",""Q5"":""78"",""Q6"":""100"",""Q7"":""82"",""Q8"":""77"",""Q9"":""86"",""Q10"":""85"",""Q11"":""0"",""Q12"":""87"",""Q13"":""89"",""Q14"":""90"",""Q15"":""74""}","","{""itemA"":""kick something"",""itemB"":""think about something"",""categoryA"":""physical"",""categoryB"":""cognitive"",""attention_check"":false,""correct_response"":null}","{""itemA"":""sit down"",""itemB"":""think about something"",""categoryA"":""physical"",""categoryB"":""cognitive"",""attention_check"":false,""correct_response"":null}","{""itemA"":""get sick"",""itemB"":""think about something"",""categoryA"":""physiological"",""categoryB"":""cognitive"",""attention_check"":false,""correct_response"":null}","{""itemA"":""remember something"",""itemB"":""think about something"",""categoryA"":""cognitive"",""categoryB"":""cognitive"",""attention_check"":false,""correct_response"":null}","{""itemA"":""experience pain"",""itemB"":""think about something"",""categoryA"":""physiological"",""categoryB"":""cognitive"",""attention_check"":false,""correct_response"":null}","{""itemA"":""become hungry"",""itemB"":""think about something"",""categoryA"":""physiological"",""categoryB"":""cognitive"",""attention_check"":false,""correct_response"":null}","{""itemA"":""think about something"",""itemB"":""think about something"",""categoryA"":""cognitive"",""categoryB"":""cognitive"",""attention_check"":false,""correct_response"":null}","{""itemA"":""get tired"",""itemB"":""think about something"",""categoryA"":""physiological"",""categoryB"":""cognitive"",""attention_check"":false,""correct_response"":null}","{""itemA"":""reach for something"",""itemB"":""think about something"",""categoryA"":""physical"",""categoryB"":""cognitive"",""attention_check"":false,""correct_response"":null}","{""itemA"":""take a walk"",""itemB"":""think about something"",""categoryA"":""physical"",""categoryB"":""cognitive"",""attention_check"":false,""correct_response"":null}","{""itemA"":""feel scared"",""itemB"":""think about something"",""categoryA"":""physiological"",""categoryB"":""cognitive"",""attention_check"":false,""correct_response"":null}","{""itemA"":null,""itemB"":null,""categoryA"":null,""categoryB"":null,""attention_check"":true,""correct_response"":null}","{""itemA"":""hear something"",""itemB"":""think about something"",""categoryA"":""cognitive"",""categoryB"":""cognitive"",""attention_check"":false,""correct_response"":null}","{""itemA"":""choose what to do"",""itemB"":""think about something"",""categoryA"":""cognitive"",""categoryB"":""cognitive"",""attention_check"":false,""correct_response"":null}","{""itemA"":""see something"",""itemB"":""think about something"",""categoryA"":""cognitive"",""categoryB"":""cognitive"",""attention_check"":false,""correct_response"":null}","[0,1,2,3,4,5,6,7,8,9,10,11,12,13,14,15]","{""itemA"":""jump up and down"",""itemB"":""think about something"",""categoryA"":""physical"",""categoryB"":""cognitive"",""attention_check"":false,""correct_response"":null}","","","","","","","",""
"","","","","","survey-slider","14","null","3713208","C359722303E74636896615B081B895ED","6eaccfd0-ba8d-4dae-bb40-d82acd8504fa","8ae46f88-4456-4f39-84be-0d71ee8809ab","","50273.80000001192","","{""Q0"":""79"",""Q1"":""78"",""Q2"":""75"",""Q3"":""41"",""Q4"":""77"",""Q5"":""62"",""Q6"":""83"",""Q7"":""29"",""Q8"":""75"",""Q9"":""75"",""Q10"":""32"",""Q11"":""100"",""Q12"":""69"",""Q13"":""31"",""Q14"":""83""}","","{""itemA"":""experience pain"",""itemB"":""get sick"",""categoryA"":""physiological"",""categoryB"":""physiological"",""attention_check"":false,""correct_response"":null}","{""itemA"":""think about something"",""itemB"":""get sick"",""categoryA"":""cognitive"",""categoryB"":""physiological"",""attention_check"":false,""correct_response"":null}","{""itemA"":""jump up and down"",""itemB"":""get sick"",""categoryA"":""physical"",""categoryB"":""physiological"",""attention_check"":false,""correct_response"":null}","{""itemA"":""kick something"",""itemB"":""get sick"",""categoryA"":""physical"",""categoryB"":""physiological"",""attention_check"":false,""correct_response"":null}","{""itemA"":""remember something"",""itemB"":""get sick"",""categoryA"":""cognitive"",""categoryB"":""physiological"",""attention_check"":false,""correct_response"":null}","{""itemA"":""take a walk"",""itemB"":""get sick"",""categoryA"":""physical"",""categoryB"":""physiological"",""attention_check"":false,""correct_response"":null}","{""itemA"":""see something"",""itemB"":""get sick"",""categoryA"":""cognitive"",""categoryB"":""physiological"",""attention_check"":false,""correct_response"":null}","{""itemA"":""reach for something"",""itemB"":""get sick"",""categoryA"":""physical"",""categoryB"":""physiological"",""attention_check"":false,""correct_response"":null}","{""itemA"":""become hungry"",""itemB"":""get sick"",""categoryA"":""physiological"",""categoryB"":""physiological"",""attention_check"":false,""correct_response"":null}","{""itemA"":""feel scared"",""itemB"":""get sick"",""categoryA"":""physiological"",""categoryB"":""physiological"",""attention_check"":false,""correct_response"":null}","{""itemA"":""get tired"",""itemB"":""get sick"",""categoryA"":""physiological"",""categoryB"":""physiological"",""attention_check"":false,""correct_response"":null}","{""itemA"":""get sick"",""itemB"":""get sick"",""categoryA"":""physiological"",""categoryB"":""physiological"",""attention_check"":false,""correct_response"":null}","{""itemA"":""hear something"",""itemB"":""get sick"",""categoryA"":""cognitive"",""categoryB"":""physiological"",""attention_check"":false,""correct_response"":null}","{""itemA"":""sit down"",""itemB"":""get sick"",""categoryA"":""physical"",""categoryB"":""physiological"",""attention_check"":false,""correct_response"":null}","{""itemA"":""choose what to do"",""itemB"":""get sick"",""categoryA"":""cognitive"",""categoryB"":""physiological"",""attention_check"":false,""correct_response"":null}","[0,1,2,3,4,5,6,7,8,9,10,11,12,13,14]","","","","","","","","",""
"","","","","","survey-slider","15","null","3762624","C359722303E74636896615B081B895ED","6eaccfd0-ba8d-4dae-bb40-d82acd8504fa","8ae46f88-4456-4f39-84be-0d71ee8809ab","","49411.90000000596","","{""Q0"":""67"",""Q1"":""46"",""Q2"":""26"",""Q3"":""80"",""Q4"":""73"",""Q5"":""30"",""Q6"":""80"",""Q7"":""55"",""Q8"":""72"",""Q9"":""100"",""Q10"":""24"",""Q11"":""72"",""Q12"":""74"",""Q13"":""78"",""Q14"":""73""}","","{""itemA"":""jump up and down"",""itemB"":""see something"",""categoryA"":""physical"",""categoryB"":""cognitive"",""attention_check"":false,""correct_response"":null}","{""itemA"":""sit down"",""itemB"":""see something"",""categoryA"":""physical"",""categoryB"":""cognitive"",""attention_check"":false,""correct_response"":null}","{""itemA"":""kick something"",""itemB"":""see something"",""categoryA"":""physical"",""categoryB"":""cognitive"",""attention_check"":false,""correct_response"":null}","{""itemA"":""get sick"",""itemB"":""see something"",""categoryA"":""physiological"",""categoryB"":""cognitive"",""attention_check"":false,""correct_response"":null}","{""itemA"":""take a walk"",""itemB"":""see something"",""categoryA"":""physical"",""categoryB"":""cognitive"",""attention_check"":false,""correct_response"":null}","{""itemA"":""hear something"",""itemB"":""see something"",""categoryA"":""cognitive"",""categoryB"":""cognitive"",""attention_check"":false,""correct_response"":null}","{""itemA"":""reach for something"",""itemB"":""see something"",""categoryA"":""physical"",""categoryB"":""cognitive"",""attention_check"":false,""correct_response"":null}","{""itemA"":""get tired"",""itemB"":""see something"",""categoryA"":""physiological"",""categoryB"":""cognitive"",""attention_check"":false,""correct_response"":null}","{""itemA"":""remember something"",""itemB"":""see something"",""categoryA"":""cognitive"",""categoryB"":""cognitive"",""attention_check"":false,""correct_response"":null}","{""itemA"":""see something"",""itemB"":""see something"",""categoryA"":""cognitive"",""categoryB"":""cognitive"",""attention_check"":false,""correct_response"":null}","{""itemA"":""become hungry"",""itemB"":""see something"",""categoryA"":""physiological"",""categoryB"":""cognitive"",""attention_check"":false,""correct_response"":null}","{""itemA"":""choose what to do"",""itemB"":""see something"",""categoryA"":""cognitive"",""categoryB"":""cognitive"",""attention_check"":false,""correct_response"":null}","{""itemA"":""experience pain"",""itemB"":""see something"",""categoryA"":""physiological"",""categoryB"":""cognitive"",""attention_check"":false,""correct_response"":null}","{""itemA"":""think about something"",""itemB"":""see something"",""categoryA"":""cognitive"",""categoryB"":""cognitive"",""attention_check"":false,""correct_response"":null}","{""itemA"":""feel scared"",""itemB"":""see something"",""categoryA"":""physiological"",""categoryB"":""cognitive"",""attention_check"":false,""correct_response"":null}","[0,1,2,3,4,5,6,7,8,9,10,11,12,13,14]","","","","","","","","",""
"","","","","","survey-slider","16","null","3819159","C359722303E74636896615B081B895ED","6eaccfd0-ba8d-4dae-bb40-d82acd8504fa","8ae46f88-4456-4f39-84be-0d71ee8809ab","","56531","","{""Q0"":""23"",""Q1"":""68"",""Q2"":""26"",""Q3"":""60"",""Q4"":""26"",""Q5"":""27"",""Q6"":""27"",""Q7"":""100"",""Q8"":""67"",""Q9"":""28"",""Q10"":""27"",""Q11"":""100"",""Q12"":""30"",""Q13"":""26"",""Q14"":""25"",""Q15"":""26""}","","{""itemA"":""remember something"",""itemB"":""hear something"",""categoryA"":""cognitive"",""categoryB"":""cognitive"",""attention_check"":false,""correct_response"":null}","{""itemA"":""experience pain"",""itemB"":""hear something"",""categoryA"":""physiological"",""categoryB"":""cognitive"",""attention_check"":false,""correct_response"":null}","{""itemA"":""think about something"",""itemB"":""hear something"",""categoryA"":""cognitive"",""categoryB"":""cognitive"",""attention_check"":false,""correct_response"":null}","{""itemA"":""get sick"",""itemB"":""hear something"",""categoryA"":""physiological"",""categoryB"":""cognitive"",""attention_check"":false,""correct_response"":null}","{""itemA"":""get tired"",""itemB"":""hear something"",""categoryA"":""physiological"",""categoryB"":""cognitive"",""attention_check"":false,""correct_response"":null}","{""itemA"":""feel scared"",""itemB"":""hear something"",""categoryA"":""physiological"",""categoryB"":""cognitive"",""attention_check"":false,""correct_response"":null}","{""itemA"":""kick something"",""itemB"":""hear something"",""categoryA"":""physical"",""categoryB"":""cognitive"",""attention_check"":false,""correct_response"":null}","{""itemA"":""hear something"",""itemB"":""hear something"",""categoryA"":""cognitive"",""categoryB"":""cognitive"",""attention_check"":false,""correct_response"":null}","{""itemA"":""take a walk"",""itemB"":""hear something"",""categoryA"":""physical"",""categoryB"":""cognitive"",""attention_check"":false,""correct_response"":null}","{""itemA"":""become hungry"",""itemB"":""hear something"",""categoryA"":""physiological"",""categoryB"":""cognitive"",""attention_check"":false,""correct_response"":null}","{""itemA"":""jump up and down"",""itemB"":""hear something"",""categoryA"":""physical"",""categoryB"":""cognitive"",""attention_check"":false,""correct_response"":null}","{""itemA"":null,""itemB"":null,""categoryA"":null,""categoryB"":null,""attention_check"":true,""correct_response"":100}","{""itemA"":""choose what to do"",""itemB"":""hear something"",""categoryA"":""cognitive"",""categoryB"":""cognitive"",""attention_check"":false,""correct_response"":null}","{""itemA"":""reach for something"",""itemB"":""hear something"",""categoryA"":""physical"",""categoryB"":""cognitive"",""attention_check"":false,""correct_response"":null}","{""itemA"":""sit down"",""itemB"":""hear something"",""categoryA"":""physical"",""categoryB"":""cognitive"",""attention_check"":false,""correct_response"":null}","[0,1,2,3,4,5,6,7,8,9,10,11,12,13,14,15]","{""itemA"":""see something"",""itemB"":""hear something"",""categoryA"":""cognitive"",""categoryB"":""cognitive"",""attention_check"":false,""correct_response"":null}","","","","","","","",""
"","","","","","survey-slider","17","null","3869612","C359722303E74636896615B081B895ED","6eaccfd0-ba8d-4dae-bb40-d82acd8504fa","8ae46f88-4456-4f39-84be-0d71ee8809ab","","50450.5","","{""Q0"":""77"",""Q1"":""81"",""Q2"":""61"",""Q3"":""79"",""Q4"":""100"",""Q5"":""76"",""Q6"":""74"",""Q7"":""77"",""Q8"":""75"",""Q9"":""33"",""Q10"":""58"",""Q11"":""69"",""Q12"":""76"",""Q13"":""81"",""Q14"":""30""}","","{""itemA"":""become hungry"",""itemB"":""experience pain"",""categoryA"":""physiological"",""categoryB"":""physiological"",""attention_check"":false,""correct_response"":null}","{""itemA"":""get sick"",""itemB"":""experience pain"",""categoryA"":""physiological"",""categoryB"":""physiological"",""attention_check"":false,""correct_response"":null}","{""itemA"":""reach for something"",""itemB"":""experience pain"",""categoryA"":""physical"",""categoryB"":""physiological"",""attention_check"":false,""correct_response"":null}","{""itemA"":""hear something"",""itemB"":""experience pain"",""categoryA"":""cognitive"",""categoryB"":""physiological"",""attention_check"":false,""correct_response"":null}","{""itemA"":""experience pain"",""itemB"":""experience pain"",""categoryA"":""physiological"",""categoryB"":""physiological"",""attention_check"":false,""correct_response"":null}","{""itemA"":""feel scared"",""itemB"":""experience pain"",""categoryA"":""physiological"",""categoryB"":""physiological"",""attention_check"":false,""correct_response"":null}","{""itemA"":""kick something"",""itemB"":""experience pain"",""categoryA"":""physical"",""categoryB"":""physiological"",""attention_check"":false,""correct_response"":null}","{""itemA"":""see something"",""itemB"":""experience pain"",""categoryA"":""cognitive"",""categoryB"":""physiological"",""attention_check"":false,""correct_response"":null}","{""itemA"":""think about something"",""itemB"":""experience pain"",""categoryA"":""cognitive"",""categoryB"":""physiological"",""attention_check"":false,""correct_response"":null}","{""itemA"":""get tired"",""itemB"":""experience pain"",""categoryA"":""physiological"",""categoryB"":""physiological"",""attention_check"":false,""correct_response"":null}","{""itemA"":""take a walk"",""itemB"":""experience pain"",""categoryA"":""physical"",""categoryB"":""physiological"",""attention_check"":false,""correct_response"":null}","{""itemA"":""jump up and down"",""itemB"":""experience pain"",""categoryA"":""physical"",""categoryB"":""physiological"",""attention_check"":false,""correct_response"":null}","{""itemA"":""choose what to do"",""itemB"":""experience pain"",""categoryA"":""cognitive"",""categoryB"":""physiological"",""attention_check"":false,""correct_response"":null}","{""itemA"":""remember something"",""itemB"":""experience pain"",""categoryA"":""cognitive"",""categoryB"":""physiological"",""attention_check"":false,""correct_response"":null}","{""itemA"":""sit down"",""itemB"":""experience pain"",""categoryA"":""physical"",""categoryB"":""physiological"",""attention_check"":false,""correct_response"":null}","[0,1,2,3,4,5,6,7,8,9,10,11,12,13,14]","","","","","","","","",""
"","","","","","survey-slider","18","null","4278393","C359722303E74636896615B081B895ED","6eaccfd0-ba8d-4dae-bb40-d82acd8504fa","8ae46f88-4456-4f39-84be-0d71ee8809ab","","408777.40000000596","","{""Q0"":""81"",""Q1"":""83"",""Q2"":""33"",""Q3"":""83"",""Q4"":""28"",""Q5"":""29"",""Q6"":""69"",""Q7"":""85"",""Q8"":""85"",""Q9"":""88"",""Q10"":""86"",""Q11"":""86"",""Q12"":""100"",""Q13"":""36"",""Q14"":""86""}","","{""itemA"":""experience pain"",""itemB"":""reach for something"",""categoryA"":""physiological"",""categoryB"":""physical"",""attention_check"":false,""correct_response"":null}","{""itemA"":""see something"",""itemB"":""reach for something"",""categoryA"":""cognitive"",""categoryB"":""physical"",""attention_check"":false,""correct_response"":null}","{""itemA"":""take a walk"",""itemB"":""reach for something"",""categoryA"":""physical"",""categoryB"":""physical"",""attention_check"":false,""correct_response"":null}","{""itemA"":""feel scared"",""itemB"":""reach for something"",""categoryA"":""physiological"",""categoryB"":""physical"",""attention_check"":false,""correct_response"":null}","{""itemA"":""kick something"",""itemB"":""reach for something"",""categoryA"":""physical"",""categoryB"":""physical"",""attention_check"":false,""correct_response"":null}","{""itemA"":""get tired"",""itemB"":""reach for something"",""categoryA"":""physiological"",""categoryB"":""physical"",""attention_check"":false,""correct_response"":null}","{""itemA"":""sit down"",""itemB"":""reach for something"",""categoryA"":""physical"",""categoryB"":""physical"",""attention_check"":false,""correct_response"":null}","{""itemA"":""become hungry"",""itemB"":""reach for something"",""categoryA"":""physiological"",""categoryB"":""physical"",""attention_check"":false,""correct_response"":null}","{""itemA"":""hear something"",""itemB"":""reach for something"",""categoryA"":""cognitive"",""categoryB"":""physical"",""attention_check"":false,""correct_response"":null}","{""itemA"":""choose what to do"",""itemB"":""reach for something"",""categoryA"":""cognitive"",""categoryB"":""physical"",""attention_check"":false,""correct_response"":null}","{""itemA"":""think about something"",""itemB"":""reach for something"",""categoryA"":""cognitive"",""categoryB"":""physical"",""attention_check"":false,""correct_response"":null}","{""itemA"":""get sick"",""itemB"":""reach for something"",""categoryA"":""physiological"",""categoryB"":""physical"",""attention_check"":false,""correct_response"":null}","{""itemA"":""reach for something"",""itemB"":""reach for something"",""categoryA"":""physical"",""categoryB"":""physical"",""attention_check"":false,""correct_response"":null}","{""itemA"":""jump up and down"",""itemB"":""reach for something"",""categoryA"":""physical"",""categoryB"":""physical"",""attention_check"":false,""correct_response"":null}","{""itemA"":""remember something"",""itemB"":""reach for something"",""categoryA"":""cognitive"",""categoryB"":""physical"",""attention_check"":false,""correct_response"":null}","[0,1,2,3,4,5,6,7,8,9,10,11,12,13,14]","","","","","","","","",""
"","","","","","instructions","19","2.0.0","4291599","C359722303E74636896615B081B895ED","6eaccfd0-ba8d-4dae-bb40-d82acd8504fa","8ae46f88-4456-4f39-84be-0d71ee8809ab","","13204","","","[{""page_index"":0,""viewing_time"":13204}]","","","","","","","","","","","","","","","","","","","","","","","","",""
"","","","","","video-button-response","20","2.0.0","4318383","C359722303E74636896615B081B895ED","6eaccfd0-ba8d-4dae-bb40-d82acd8504fa","8ae46f88-4456-4f39-84be-0d71ee8809ab","example_videos","26783","[""video/example-video-circles.mp4""]","0","","","","","","","","","","","","","","","","","","","","","","","","","",""
"","","","","","free-sort","21","2.0.1","4459389","C359722303E74636896615B081B895ED","6eaccfd0-ba8d-4dae-bb40-d82acd8504fa","8ae46f88-4456-4f39-84be-0d71ee8809ab","","141004","","","","","","","","","","","","","","","","","","","","","[{""src"":""images/items-circles/img10.png"",""x"":610.4166666666667,""y"":0},{""src"":""images/items-circles/img2.png"",""x"":-60.41666666666666,""y"":550},{""src"":""images/items-circles/img7.png"",""x"":610.4166666666667,""y"":183.33333333333334},{""src"":""images/items-circles/img15.png"",""x"":-60.41666666666666,""y"":366.6666666666667},{""src"":""images/items-circles/img4.png"",""x"":610.4166666666667,""y"":366.6666666666667},{""src"":""images/items-circles/img6.png"",""x"":-60.41666666666666,""y"":183.33333333333334},{""src"":""images/items-circles/img9.png"",""x"":610.4166666666667,""y"":550},{""src"":""images/items-circles/img11.png"",""x"":-60.41666666666666,""y"":0},{""src"":""images/items-circles/img3.png"",""x"":793.75,""y"":0},{""src"":""images/items-circles/img13.png"",""x"":-243.75,""y"":550},{""src"":""images/items-circles/img8.png"",""x"":793.75,""y"":183.33333333333334},{""src"":""images/items-circles/img5.png"",""x"":-243.75,""y"":366.6666666666667},{""src"":""images/items-circles/img1.png"",""x"":793.75,""y"":366.6666666666667},{""src"":""images/items-circles/img14.png"",""x"":-243.75,""y"":183.33333333333334},{""src"":""images/items-circles/img12.png"",""x"":793.75,""y"":550}]","[{""src"":""images/items-circles/img11.png"",""x"":138,""y"":104},{""src"":""images/items-circles/img14.png"",""x"":288,""y"":100},{""src"":""images/items-circles/img6.png"",""x"":148,""y"":248},{""src"":""images/items-circles/img15.png"",""x"":110,""y"":272},{""src"":""images/items-circles/img13.png"",""x"":142,""y"":417},{""src"":""images/items-circles/img9.png"",""x"":117,""y"":122},{""src"":""images/items-circles/img11.png"",""x"":144,""y"":103},{""src"":""images/items-circles/img15.png"",""x"":76,""y"":262},{""src"":""images/items-circles/img9.png"",""x"":81,""y"":139},{""src"":""images/items-circles/img5.png"",""x"":266,""y"":409},{""src"":""images/items-circles/img2.png"",""x"":402,""y"":405},{""src"":""images/items-circles/img12.png"",""x"":392,""y"":268},{""src"":""images/items-circles/img4.png"",""x"":299,""y"":468},{""src"":""images/items-circles/img10.png"",""x"":428,""y"":98},{""src"":""images/items-circles/img3.png"",""x"":274,""y"":240},{""src"":""images/items-circles/img12.png"",""x"":401,""y"":231},{""src"":""images/items-circles/img8.png"",""x"":501,""y"":325},{""src"":""images/items-circles/img14.png"",""x"":254,""y"":39},{""src"":""images/items-circles/img10.png"",""x"":383,""y"":77},{""src"":""images/items-circles/img7.png"",""x"":491,""y"":162},{""src"":""images/items-circles/img11.png"",""x"":129,""y"":99},{""src"":""images/items-circles/img15.png"",""x"":41,""y"":298},{""src"":""images/items-circles/img6.png"",""x"":80,""y"":269},{""src"":""images/items-circles/img13.png"",""x"":92,""y"":413},{""src"":""images/items-circles/img5.png"",""x"":220,""y"":467},{""src"":""images/items-circles/img4.png"",""x"":272,""y"":510},{""src"":""images/items-circles/img2.png"",""x"":392,""y"":467},{""src"":""images/items-circles/img8.png"",""x"":492,""y"":376},{""src"":""images/items-circles/img12.png"",""x"":516,""y"":271},{""src"":""images/items-circles/img8.png"",""x"":493,""y"":394},{""src"":""images/items-circles/img12.png"",""x"":515,""y"":278},{""src"":""images/items-circles/img1.png"",""x"":350,""y"":366}]","[{""src"":""images/items-circles/img10.png"",""x"":383,""y"":77},{""src"":""images/items-circles/img2.png"",""x"":392,""y"":467},{""src"":""images/items-circles/img7.png"",""x"":491,""y"":162},{""src"":""images/items-circles/img15.png"",""x"":41,""y"":298},{""src"":""images/items-circles/img4.png"",""x"":272,""y"":510},{""src"":""images/items-circles/img6.png"",""x"":80,""y"":269},{""src"":""images/items-circles/img9.png"",""x"":81,""y"":139},{""src"":""images/items-circles/img11.png"",""x"":129,""y"":99},{""src"":""images/items-circles/img3.png"",""x"":274,""y"":240},{""src"":""images/items-circles/img13.png"",""x"":92,""y"":413},{""src"":""images/items-circles/img8.png"",""x"":493,""y"":394},{""src"":""images/items-circles/img5.png"",""x"":220,""y"":467},{""src"":""images/items-circles/img1.png"",""x"":350,""y"":366},{""src"":""images/items-circles/img14.png"",""x"":254,""y"":39},{""src"":""images/items-circles/img12.png"",""x"":515,""y"":278}]","","","","",""
"","","","","","instructions","22","2.0.0","4483991","C359722303E74636896615B081B895ED","6eaccfd0-ba8d-4dae-bb40-d82acd8504fa","8ae46f88-4456-4f39-84be-0d71ee8809ab","","24601","","","[{""page_index"":0,""viewing_time"":24601}]","","","","","","","","","","","","","","","","","","","","","","","","",""
"","","","","","survey-html-form","23","2.0.0","4572275","C359722303E74636896615B081B895ED","6eaccfd0-ba8d-4dae-bb40-d82acd8504fa","8ae46f88-4456-4f39-84be-0d71ee8809ab","demographics_survey","88282","","{""feedback"":""Thinking in terms of a cause and effect. Could the action likely cause this effect either physical or mental."",""age"":""36"",""gender"":""Male"",""other_gender"":"""",""race"":""White"",""other_race"":"""",""ethnicity"":""Non-Hispanic""}","","","","","","","","","","","","","","","","","","","","","","Thinking in terms of a cause and effect. Could the action likely cause this effect either physical or mental.","36","Non-Hispanic","Male","White"
